time,ax,ay,az,gx,gy,gz
0.0,0.9672,-0.0038,0.2314,-0.552,5.039,-0.727
12.0,0.966,-0.0032,0.2543,-0.048,5.367,-0.994
25.0,0.9626,0.0267,0.2421,0.73,3.894,-1.452
38.0,0.9555,0.0238,0.2631,-2.43,3.749,0.273
51.0,0.9658,0.0059,0.2648,-0.094,2.153,1.021
64.0,0.9644,0.0001,0.2328,1.135,1.337,1.097
77.0,0.9621,0.0027,0.232,0.768,1.764,0.693
90.0,0.9604,0.0098,0.2276,-0.087,1.848,0.678
103.0,0.9583,0.0118,0.2307,1.196,1.833,0.891
116.0,0.9614,0.0173,0.2205,1.486,1.611,1.502
129.0,0.9631,0.007,0.2207,0.593,1.986,1.975
142.0,0.9658,-0.0087,0.2296,1.211,1.955,2.067
155.0,0.9669,-0.0088,0.221,1.341,2.428,1.899
168.0,0.9663,-0.017,0.2438,1.837,2.963,1.571
181.0,0.9705,-0.0217,0.252,2.081,2.23,1.342
194.0,0.9693,-0.0259,0.2481,1.875,1.428,0.555
207.0,0.9692,-0.0251,0.2467,2.051,0.772,-0.246
220.0,0.9669,-0.0127,0.2487,1.723,-0.167,-0.689
233.0,0.9664,-0.0121,0.2304,2.02,-0.717,-1.353
246.0,0.9642,-0.002,0.2172,2.654,-0.434,-1.597
259.0,0.9613,0.0079,0.2065,2.425,0.039,-1.475
272.0,0.9586,0.0077,0.1924,1.86,0.871,-1.162
285.0,0.9638,0.0117,0.1889,-0.85,2.673,-0.834
298.0,0.9611,0.0006,0.2137,-4.331,4.062,-0.834
311.0,0.9628,-0.0017,0.2348,-4.705,3.947,-1.231
324.0,0.9621,0.0083,0.2493,-3.171,3.306,-1.559
337.0,0.9615,0.0135,0.2388,0.226,2.344,-0.841
350.0,0.9677,0.0112,0.2262,1.348,1.787,-0.277
363.0,0.967,0.0134,0.2226,-0.018,2.352,-0.208
376.0,0.9641,0.0118,0.2337,-1.293,2.382,0.105
389.0,0.9644,0.0045,0.2428,-1.568,2.062,0.212
402.0,0.9658,0.009,0.2364,-0.789,1.65,0.029
415.0,0.9654,0.0082,0.2372,-0.659,1.451,0.128
428.0,0.963,0.0094,0.2294,-1.445,1.634,0.578
441.0,0.9631,-0.0042,0.2422,-1.819,1.986,0.403
454.0,0.9643,-0.0074,0.2614,-0.499,1.215,0.181
467.0,0.9615,-0.0147,0.258,2.967,-0.457,-0.353
480.0,0.962,0.006,0.2259,5.28,-1.327,-0.826
493.0,0.9644,0.0129,0.2079,4.997,-1.06,-0.773
506.0,0.963,0.0229,0.1925,3.967,-0.587,-0.216
519.0,0.9615,0.0137,0.2027,2.158,0.695,0.41
532.0,0.9657,-0.0026,0.2106,2.074,1.054,0.7
545.0,0.9622,-0.0121,0.2111,2.425,1.642,0.38
558.0,0.9635,-0.0118,0.2206,2.829,2.161,-0.307
571.0,0.9649,-0.0033,0.2295,1.425,2.329,-1.101
584.0,0.9622,0.007,0.2317,0.89,1.634,-1.2
597.0,0.9653,0.0201,0.2255,-0.491,1.497,-0.78
610.0,0.9671,0.0129,0.2233,-3.003,2.039,-0.643
623.0,0.9681,-0.0009,0.2406,-4.27,2.848,-0.887
636.0,0.9661,0.0049,0.2344,-1.048,2.047,-0.803
649.0,0.965,0.0063,0.2115,1.379,2.024,-1.78
662.0,0.9555,0.031,0.2443,-3.735,3.184,-0.925
675.0,0.9642,0.021,0.2497,-1.377,1.68,-0.277
688.0,0.9607,0.0145,0.2318,0.745,1.268,0.517
701.0,0.9661,0.0092,0.2245,1.066,1.528,0.624
714.0,0.9641,0.0046,0.2278,1.272,1.024,0.487
727.0,0.9681,0.0017,0.2102,1.127,0.986,0.349
740.0,0.9682,0.0054,0.2096,1.486,1.688,0.273
753.0,0.9632,0.0049,0.2151,1.326,1.909,0.235
766.0,0.9641,0.0013,0.2201,1.066,1.963,0.41
779.0,0.9644,0.0046,0.2265,0.348,1.932,0.197
792.0,0.9681,0.0093,0.2194,-0.72,1.695,0.136
805.0,0.9654,0.0109,0.2285,-0.621,2.298,0.204
818.0,0.9597,0.0131,0.2399,0.669,2.176,0.426
831.0,0.9598,0.0172,0.2454,1.6,1.459,0.754
844.0,0.9604,0.0101,0.2398,2.623,0.184,1.212
857.0,0.9615,0.0092,0.2163,1.982,-0.915,1.67
870.0,0.9591,-0.0016,0.2166,0.967,-1.076,1.685
883.0,0.9626,-0.0067,0.2105,0.31,-1.373,1.479
896.0,0.9599,-0.0083,0.201,0.097,-1.114,1.021
909.0,0.958,0.0161,0.2001,-3.316,-1.297,0.861
922.0,0.96,0.041,0.1939,-11.064,-1.587,1.914
935.0,0.9675,0.0149,0.1969,-10.369,-0.511,2.617
948.0,0.9722,0.0057,0.2077,-9.575,0.947,3.273
961.0,0.9785,0.0007,0.2338,-6.232,2.031,3.281
974.0,0.9743,-0.0022,0.2473,-3.621,2.52,3.059
987.0,0.973,-0.0076,0.2697,-1.797,2.016,2.754
1000.0,0.9705,0.0002,0.2615,0.066,-0.389,3.418
1013.0,0.9747,-0.0315,0.2448,-0.957,-1.694,4.006
1026.0,0.9868,-0.0547,0.248,-1.056,-2.48,3.143
1039.0,0.9831,-0.0543,0.2318,-0.193,-3.717,1.639
1052.0,0.976,-0.0426,0.2043,-0.377,-2.946,0.273
1065.0,0.9682,-0.025,0.218,0.539,-1.526,-0.529
1078.0,0.9682,-0.0222,0.2078,1.333,-1.572,-0.536
1091.0,0.9655,-0.022,0.2097,1.921,-0.648,-1.124
1104.0,0.9668,-0.0092,0.2055,1.852,-0.358,-1.483
1117.0,0.9548,-0.0023,0.2159,2.425,0.001,-1.162
1130.0,0.9552,0.0021,0.2028,3.425,-0.45,-0.009
1143.0,0.9659,-0.0265,0.2163,1.776,-0.037,0.38
1156.0,0.9711,-0.0471,0.222,2.097,-0.702,-0.383
1169.0,0.9666,-0.0387,0.2183,2.272,-1.312,-1.635
1182.0,0.969,-0.0149,0.2067,1.173,-1.442,-2.681
1195.0,0.9541,0.0145,0.2007,-1.461,-1.549,-2.651
1208.0,0.9524,0.035,0.1969,-3.781,-1.236,-1.544
1221.0,0.9711,0.0277,0.2097,-3.132,-1.35,-0.185
1234.0,0.9703,0.0088,0.1801,-0.575,-1.373,0.792
1247.0,0.9738,-0.0264,0.1696,1.043,0.825,0.929
1260.0,0.9765,-0.0344,0.1835,1.364,2.131,-0.17
1273.0,0.9807,-0.0367,0.1961,-0.018,2.215,-1.719
1286.0,0.9725,-0.0147,0.1979,-1.079,2.215,-3.04
1299.0,0.9751,0.0013,0.208,-0.766,1.84,-3.666
1312.0,0.9753,0.0199,0.1924,0.639,1.375,-4.002
1325.0,0.9688,0.0437,0.1798,-0.148,2.466,-3.414
1338.0,0.9583,0.0481,0.2108,-1.621,3.711,-2.322
1351.0,0.9605,0.0442,0.2202,-2.087,2.833,-0.903
1364.0,0.9661,0.016,0.221,-2.232,2.291,0.151
1377.0,0.9705,-0.0018,0.2224,-0.774,2.329,-0.055
1390.0,0.9692,-0.0085,0.2268,1.539,2.176,-0.643
1403.0,0.9685,-0.0044,0.2182,2.959,2.001,-1.506
1416.0,0.9624,0.0177,0.2135,1.577,2.81,-1.948
1429.0,0.9625,0.0206,0.2488,0.952,2.123,-1.689
1442.0,0.9613,0.0278,0.2453,1.875,-0.076,-1.33
1455.0,0.9646,0.0276,0.2188,3.57,-1.045,-0.46
1468.0,0.9611,0.0286,0.1989,5.081,-0.976,0.494
1481.0,0.9655,0.0151,0.1796,3.318,-0.915,1.792
1494.0,0.9683,-0.0094,0.1761,0.761,0.589,2.273
1507.0,0.9707,-0.0299,0.1834,-1.43,1.947,2.296
1520.0,0.9725,-0.0377,0.2014,-0.682,2.482,1.479
1533.0,0.968,-0.0337,0.205,-0.537,3.276,0.746
1546.0,0.9624,-0.0276,0.2167,0.005,3.68,-0.399
1559.0,0.9609,0.0018,0.2213,0.31,2.963,-1.063
1572.0,0.9561,0.0288,0.2157,-0.438,2.497,-0.788
1585.0,0.9611,0.0297,0.2243,-0.438,1.795,0.273
1598.0,0.9642,0.0386,0.2036,0.036,0.848,1.594
1611.0,0.9628,0.0267,0.1961,-0.926,1.634,3.036
1624.0,0.9707,0.0043,0.208,-0.484,1.909,3.968
1637.0,0.9716,-0.0177,0.2068,-0.354,2.092,4.021
1650.0,0.9721,-0.0299,0.2159,1.188,2.413,3.097
1663.0,0.9693,-0.0239,0.2185,1.616,2.008,2.197
1676.0,0.9652,-0.0143,0.2095,1.287,1.772,1.716
1689.0,0.9664,-0.002,0.2012,1.478,1.657,1.716
1702.0,0.9665,-0.0088,0.1931,1.043,1.734,1.937
1715.0,0.9675,-0.011,0.2005,0.356,2.413,2.372
1728.0,0.9718,-0.028,0.2277,1.41,2.008,2.502
1741.0,0.976,-0.049,0.2207,2.181,0.077,2.258
1754.0,0.978,-0.0608,0.2068,2.371,-0.266,1.12
1767.0,0.9784,-0.0627,0.1999,3.753,-0.167,-0.452
1780.0,0.9804,-0.0426,0.1801,4.112,-0.129,-1.544
1793.0,0.9764,-0.031,0.1764,2.784,1.062,-2.292
1806.0,0.9718,-0.0117,0.1859,0.852,1.726,-2.857
1819.0,0.9687,0.0056,0.1945,-0.72,1.947,-2.788
1832.0,0.9663,0.012,0.1934,-1.407,2.581,-2.3
1845.0,0.9647,0.0128,0.2047,-1.629,2.779,-1.78
1858.0,0.965,0.0149,0.199,-1.613,2.711,-1.101
1871.0,0.9681,0.0085,0.1973,-1.674,3.123,-0.704
1884.0,0.968,-0.0012,0.2051,-0.987,3.298,-0.429
1897.0,0.9665,-0.0089,0.2094,-0.186,3.016,-0.429
1910.0,0.9697,-0.0061,0.2051,-0.926,3.207,-0.681
1923.0,0.9688,-0.0009,0.2149,-1.964,3.382,-0.765
1936.0,0.9699,-0.004,0.2223,-2.751,3.016,-0.582
1949.0,0.9703,-0.0085,0.2234,-2.285,2.543,-0.689
1962.0,0.9665,-0.0103,0.2267,-1.277,2.413,-0.712
1975.0,0.9679,-0.0129,0.2261,-0.361,1.558,-0.796
1988.0,0.9722,-0.0176,0.2206,-0.522,1.215,-0.933
2001.0,0.9702,-0.0118,0.2149,0.058,0.924,-1.551
2014.0,0.9665,0.0009,0.2079,0.692,0.444,-1.864
2027.0,0.9674,0.017,0.1919,0.44,0.993,-1.834
2040.0,0.9674,0.0225,0.2036,-0.797,1.657,-1.2
2053.0,0.9593,0.0299,0.2112,-0.751,1.581,-0.452
2066.0,0.9611,0.0209,0.2149,-0.545,1.161,0.571
2079.0,0.9649,0.0054,0.2117,-0.461,1.039,1.128
2092.0,0.9655,-0.0001,0.2143,0.318,0.726,1.029
2105.0,0.9703,0.0021,0.2043,0.013,0.84,0.853
2118.0,0.9702,0.0074,0.203,0.822,0.428,0.594
2131.0,0.969,0.0144,0.1912,1.02,0.627,0.899
2144.0,0.967,0.0052,0.1963,1.058,1.23,1.334
2157.0,0.9707,-0.0056,0.2049,1.432,1.123,1.51
2170.0,0.973,-0.015,0.1988,1.898,1.199,1.334
2183.0,0.9705,-0.0149,0.1942,2.348,1.36,0.708
2196.0,0.9705,-0.0054,0.1877,2.295,1.802,0.181
2209.0,0.9722,0.0059,0.1848,2.654,2.436,0.242
2222.0,0.9664,0.0171,0.1805,1.974,3.146,0.617
2235.0,0.9677,0.0094,0.2016,1.807,3.642,0.929
2248.0,0.9633,0.017,0.1993,3.509,3.55,1.639
2261.0,0.9661,0.0017,0.2062,3.516,3.352,2.449
2274.0,0.9743,-0.01,0.1975,2.6,3.207,2.403
2287.0,0.9669,-0.0118,0.2035,1.043,3.39,2.433
2300.0,0.9703,-0.0275,0.2155,0.753,3.329,1.586
2313.0,0.9704,-0.0162,0.2127,2.715,2.932,0.807
2326.0,0.9671,-0.0077,0.2022,3.631,2.879,0.601
2339.0,0.9644,0.0072,0.2043,3.593,2.955,0.929
2352.0,0.9674,0.0072,0.2104,1.539,2.818,2.021
2365.0,0.9714,-0.0109,0.2144,-0.003,2.589,2.403
2378.0,0.9704,-0.0276,0.2312,0.226,2.779,2.471
2391.0,0.9724,-0.0336,0.235,1.982,1.924,1.914
2404.0,0.9709,-0.0361,0.2232,3.058,1.237,1.113
2417.0,0.9738,-0.0249,0.217,2.333,0.833,0.273
2430.0,0.9681,-0.0134,0.2168,0.822,0.474,-0.093
2443.0,0.9647,-0.0045,0.2094,1.417,0.566,0.036
2456.0,0.9709,-0.0133,0.2102,1.242,0.314,0.388
2469.0,0.9665,-0.0136,0.2032,0.784,0.215,0.036
2482.0,0.9643,-0.0051,0.1892,0.974,0.902,-0.032
2495.0,0.9666,0.001,0.1927,0.326,1.505,0.204
2508.0,0.9633,0.0027,0.191,0.486,1.818,0.533
2521.0,0.9639,-0.0006,0.1924,0.639,2.291,0.922
2534.0,0.9661,-0.0073,0.1988,0.089,2.947,0.968
2547.0,0.9669,-0.007,0.2137,1.234,2.757,1.105
2560.0,0.9721,-0.0176,0.2027,0.852,2.581,1.181
2573.0,0.9742,-0.017,0.2072,0.326,2.772,0.807
2586.0,0.9699,-0.0176,0.2255,0.387,2.589,0.792
2599.0,0.9747,-0.0237,0.2226,0.913,1.81,0.487
2612.0,0.9735,-0.0161,0.221,1.402,1.627,0.097
2625.0,0.9727,-0.0129,0.2163,1.982,1.23,-0.025
2638.0,0.9711,-0.0084,0.2036,1.814,0.917,-0.177
2651.0,0.9704,-0.0062,0.1977,1.326,1.245,-0.032
2664.0,0.965,-0.0035,0.1955,1.364,1.535,0.319
2677.0,0.9685,-0.015,0.2096,0.921,1.291,0.693
2690.0,0.9698,-0.0244,0.2033,1.249,0.993,0.525
2703.0,0.9699,-0.0262,0.1966,1.295,1.039,-0.086
2716.0,0.9685,-0.0178,0.1883,0.501,1.619,-0.399
2729.0,0.9688,-0.0089,0.1929,-0.255,2.176,-0.612
2742.0,0.963,-0.0044,0.2052,-0.964,2.795,-0.399
2755.0,0.9655,-0.0114,0.2167,0.005,2.306,-0.162
2768.0,0.966,-0.011,0.2088,-0.056,1.848,0.059
2781.0,0.9702,-0.0116,0.2129,0.097,2.054,0.036
2794.0,0.9643,-0.0139,0.2094,0.753,1.428,-0.101
2807.0,0.9663,-0.0134,0.196,0.234,1.68,-0.116
2820.0,0.9699,-0.0107,0.1997,0.532,2.069,-0.093
2833.0,0.965,-0.0094,0.2018,1.005,2.077,-0.04
2846.0,0.965,-0.0166,0.2016,0.074,2.153,0.25
2859.0,0.973,-0.0245,0.2046,-0.117,1.84,0.021
2872.0,0.9741,-0.0291,0.2072,-0.957,2.298,-0.345
2885.0,0.9733,-0.0254,0.2097,-0.476,2.451,-0.895
2898.0,0.9705,-0.0133,0.2106,-0.537,2.55,-1.101
2911.0,0.9694,-0.015,0.2215,-0.56,2.344,-1.277
2924.0,0.9639,-0.0104,0.2177,0.326,1.482,-1.261
2937.0,0.967,-0.0089,0.2055,0.539,0.993,-1.139
2950.0,0.9682,-0.0093,0.2035,0.738,1.047,-1.246
2963.0,0.9668,0.0002,0.1925,1.669,1.199,-1.277
2976.0,0.9648,0.0073,0.1869,0.784,2.199,-0.819
2989.0,0.9659,0.0046,0.2,-0.949,2.734,-0.513
3002.0,0.9668,0.0048,0.2189,-1.255,2.718,-0.193
3015.0,0.9649,0.0021,0.2233,-0.644,1.657,-0.017
3028.0,0.9671,-0.0018,0.2057,0.425,1.382,0.12
3041.0,0.9696,-0.0017,0.2041,1.051,1.451,0.388
3054.0,0.972,-0.0155,0.2029,0.104,1.68,0.41
3067.0,0.9718,-0.0199,0.2102,0.02,1.535,0.204
3080.0,0.9707,-0.0177,0.2102,0.936,1.627,-0.483
3093.0,0.9685,-0.0143,0.2104,2.326,1.283,-0.62
3106.0,0.9694,-0.0033,0.1923,2.44,1.215,-0.796
3119.0,0.9641,0.005,0.1968,0.616,1.879,-0.292
3132.0,0.966,-0.0039,0.2007,-0.888,2.207,0.159
3145.0,0.9649,0.0006,0.2016,-0.445,2.321,0.242
3158.0,0.9668,-0.0065,0.2099,0.799,2.36,0.517
3171.0,0.9685,-0.0073,0.2041,1.333,2.337,0.578
3184.0,0.9668,-0.0107,0.219,1.539,2.375,0.716
3197.0,0.9703,-0.0128,0.2166,1.058,1.886,0.494
3210.0,0.9701,-0.0192,0.22,1.089,1.673,0.296
3223.0,0.9699,-0.0143,0.2194,2.127,1.222,-0.093
3236.0,0.9679,-0.0078,0.2056,2.432,0.642,-0.185
3249.0,0.9675,-0.0053,0.1938,2.539,0.711,-0.017
3262.0,0.9692,-0.0072,0.1923,1.364,1.65,0.288
3275.0,0.9666,-0.0022,0.1886,0.448,2.482,0.655
3288.0,0.9643,-0.0129,0.2082,-0.812,3.176,0.891
3301.0,0.968,-0.0162,0.2161,-0.545,2.627,0.777
3314.0,0.9648,-0.0183,0.2196,-0.11,1.932,0.464
3327.0,0.9688,-0.0155,0.2123,1.287,1.459,0.212
3340.0,0.9691,-0.0083,0.1944,1.738,1.428,0.212
3353.0,0.9692,-0.009,0.1913,1.203,2.069,0.395
3366.0,0.9668,-0.0107,0.2016,1.127,2.321,0.525
3379.0,0.9692,-0.0123,0.2024,0.982,2.115,0.311
3392.0,0.9668,-0.0084,0.2055,0.761,2.215,0.372
3405.0,0.9688,-0.007,0.1991,0.623,2.268,0.342
3418.0,0.9679,-0.0053,0.1985,0.257,2.856,0.655
3431.0,0.9674,-0.0103,0.2052,-0.705,3.085,0.899
3444.0,0.967,-0.0151,0.2126,-0.957,3.039,0.723
3457.0,0.9691,-0.0157,0.217,-0.354,3.047,0.571
3470.0,0.9669,-0.0161,0.2168,0.921,2.65,0.388
3483.0,0.9724,-0.0175,0.2211,1.776,1.856,0.143
3496.0,0.9681,-0.0118,0.2108,2.112,1.367,0.143
3509.0,0.9716,-0.0053,0.2011,1.99,1.482,0.189
3522.0,0.9721,-0.0177,0.2084,1.31,1.81,0.258
3535.0,0.9677,-0.0148,0.206,1.142,1.886,0.013
3548.0,0.9647,-0.0137,0.2101,0.654,2.161,-0.055
3561.0,0.9668,-0.0076,0.2062,1.28,1.993,-0.009
3574.0,0.9686,-0.0071,0.2008,0.646,2.047,0.281
3587.0,0.966,-0.0107,0.2099,0.127,1.978,0.578
3600.0,0.9685,-0.0157,0.2091,0.402,1.871,0.8
3613.0,0.972,-0.025,0.2094,1.295,1.642,0.403
3626.0,0.9735,-0.0256,0.2056,1.234,1.688,-0.078
3639.0,0.973,-0.0209,0.2019,1.501,1.795,-0.338
3652.0,0.9686,-0.0187,0.1977,0.738,2.268,-0.391
3665.0,0.9709,-0.0181,0.2096,-0.438,2.589,-0.521
3678.0,0.9677,-0.0126,0.2078,0.104,2.428,-0.841
3691.0,0.9652,-0.0072,0.213,-0.041,2.55,-0.75
3704.0,0.9653,-0.0044,0.2135,-0.316,2.436,-0.643
3717.0,0.9635,0.0017,0.2206,-0.636,2.36,-0.322
3730.0,0.963,-0.0022,0.2231,0.074,2.153,0.128
3743.0,0.9653,-0.0126,0.2201,1.219,1.321,0.281
3756.0,0.9688,-0.0144,0.2102,1.379,0.917,0.143
3769.0,0.969,-0.0125,0.2023,0.921,1.001,-0.063
3782.0,0.9674,-0.0101,0.2027,1.089,1.245,-0.177
3795.0,0.9681,-0.0018,0.1956,1.494,1.451,-0.109
3808.0,0.9682,-0.006,0.1963,0.31,2.306,0.12
3821.0,0.9707,-0.0022,0.205,-0.094,2.795,0.212
3834.0,0.968,-0.0104,0.2157,-0.216,2.932,0.456
3847.0,0.9685,-0.0125,0.2168,0.547,2.413,0.388
3860.0,0.9718,-0.014,0.2119,1.28,2.039,0.304
3873.0,0.9663,-0.0045,0.21,1.425,2.069,0.296
3886.0,0.9686,-0.0089,0.2067,0.203,1.779,0.525
3899.0,0.967,-0.0066,0.2085,-0.339,1.802,0.617
3912.0,0.968,-0.009,0.2061,-0.323,2.215,0.586
3925.0,0.9644,-0.0098,0.2237,1.036,2.222,0.555
3938.0,0.966,-0.0057,0.211,2.272,1.65,0.624
3951.0,0.9626,-0.0071,0.2063,1.86,2.039,0.929
3964.0,0.9631,-0.0082,0.2065,1.219,2.062,1.25
3977.0,0.9694,-0.0236,0.2063,0.417,1.978,1.357
3990.0,0.9705,-0.0291,0.2029,1.013,2.192,1.006
4003.0,0.9726,-0.0341,0.2025,1.471,2.36,0.517
4016.0,0.9693,-0.0289,0.2043,2.028,2.68,0.006
4029.0,0.966,-0.0249,0.2032,1.89,3.008,-0.338
4042.0,0.9653,-0.0112,0.2133,0.6,3.207,-0.574
4055.0,0.9661,-0.0077,0.2217,-0.361,3.123,-0.193
4068.0,0.9694,-0.0073,0.2232,-1.064,2.253,0.143
4081.0,0.9676,-0.0103,0.2246,-0.888,2.069,0.517
4094.0,0.9654,-0.0171,0.2321,0.516,1.505,0.555
4107.0,0.9688,-0.0179,0.2245,2.158,0.81,0.38
4120.0,0.9674,-0.0143,0.2128,2.417,0.596,0.174
4133.0,0.9671,-0.0121,0.2134,1.745,0.726,0.013
4146.0,0.9699,-0.012,0.2062,0.73,0.703,0.097
4159.0,0.9697,-0.0143,0.205,0.677,0.902,0.334
4172.0,0.9698,-0.0217,0.2039,1.142,1.062,0.395
4185.0,0.9649,-0.0269,0.1999,0.913,1.237,0.288
4198.0,0.9677,-0.0341,0.2018,1.158,1.352,-0.04
4211.0,0.9721,-0.0286,0.2,1.562,1.772,-0.658
4224.0,0.9705,-0.0239,0.1969,1.371,2.115,-0.994
4237.0,0.9693,-0.0195,0.2005,1.272,2.566,-0.964
4250.0,0.967,-0.0156,0.2071,-0.079,2.382,-0.933
4263.0,0.9727,-0.015,0.2135,-0.781,2.131,-0.696
4276.0,0.9714,-0.0194,0.218,-0.384,1.978,-0.704
4289.0,0.9747,-0.021,0.2211,1.097,1.993,-1.116
4302.0,0.9666,-0.0133,0.2162,1.646,1.955,-1.399
4315.0,0.9671,-0.0079,0.2172,0.776,1.802,-1.345
4328.0,0.9615,0.0041,0.2126,0.104,1.329,-1.208
4341.0,0.9618,0.0009,0.2083,0.127,1.069,-0.689
4354.0,0.9618,-0.0004,0.205,1.043,1.054,-0.322
4367.0,0.9671,-0.01,0.1956,1.89,1.047,0.044
4380.0,0.9686,-0.0082,0.1851,1.486,1.23,-0.04
4393.0,0.9707,-0.0092,0.183,0.768,2.024,0.013
4406.0,0.9687,-0.0099,0.1873,0.242,2.68,0.013
4419.0,0.9696,-0.0144,0.1939,-0.293,3.413,0.143
4432.0,0.9663,-0.0144,0.209,-0.819,3.451,0.029
4445.0,0.969,-0.0168,0.2087,-0.964,3.329,-0.109
4458.0,0.9716,-0.017,0.2172,-0.911,3.245,-0.529
4471.0,0.9694,-0.016,0.2209,-0.598,2.97,-0.742
4484.0,0.9681,-0.0095,0.2198,0.455,2.36,-0.948
4497.0,0.968,0.0007,0.2113,0.921,1.779,-0.674
4510.0,0.9661,0.0023,0.2084,0.089,1.963,-0.216
4523.0,0.9672,0.0021,0.2129,0.081,2.031,0.113
4536.0,0.9657,-0.0015,0.2154,0.196,2.222,0.487
4549.0,0.965,-0.0073,0.2213,0.6,2.192,0.403
4562.0,0.965,-0.0109,0.2139,1.448,1.787,0.281
4575.0,0.9638,-0.0092,0.2034,0.99,1.596,0.273
4588.0,0.9688,-0.006,0.1988,-0.277,1.978,0.464
4601.0,0.9665,-0.0121,0.1985,-0.293,2.489,0.487
4614.0,0.9632,-0.012,0.199,-0.209,2.787,0.639
4627.0,0.9654,-0.0143,0.2039,-0.354,3.131,0.601
4640.0,0.9665,-0.0114,0.2079,-0.01,3.253,0.655
4653.0,0.9686,-0.0145,0.2032,0.028,3.451,0.807
4666.0,0.9655,-0.0115,0.213,-0.14,3.703,0.525
4679.0,0.9644,-0.0034,0.2167,-0.01,3.444,0.853
4692.0,0.9631,-0.0046,0.2224,0.219,3.329,0.868
4705.0,0.9653,-0.0063,0.2222,-0.186,2.871,1.059
4718.0,0.9666,-0.0045,0.2157,-0.323,2.39,1.395
4731.0,0.9699,-0.0139,0.214,-0.674,2.192,1.861
4744.0,0.9697,-0.0206,0.2115,-0.949,2.306,1.868
4757.0,0.9727,-0.0306,0.2185,-1.003,2.802,1.67
4770.0,0.9704,-0.0305,0.2191,-0.003,2.573,1.159
4783.0,0.9677,-0.0281,0.2199,0.013,2.802,0.823
4796.0,0.9702,-0.0297,0.2242,0.501,2.52,0.51
4809.0,0.9677,-0.0282,0.2117,1.234,2.253,0.189
4822.0,0.9663,-0.0233,0.2099,1.158,2.382,0.319
4835.0,0.9713,-0.0294,0.2111,0.158,2.566,0.181
4848.0,0.9713,-0.0299,0.2163,-0.071,2.489,-0.177
4861.0,0.9642,-0.0239,0.2139,0.417,2.192,-0.666
4874.0,0.9675,-0.0156,0.2084,0.944,2.688,-0.758
4887.0,0.9636,-0.009,0.2195,0.952,2.986,-0.483
4900.0,0.9637,-0.0076,0.2129,0.822,2.993,-0.2
4913.0,0.962,-0.0096,0.2139,0.562,3.428,0.273
4926.0,0.9627,-0.0104,0.2238,-0.064,3.528,0.487
4939.0,0.9643,-0.0195,0.2344,0.455,2.856,0.555
4952.0,0.962,-0.0205,0.2281,1.371,2.352,0.426
4965.0,0.9624,-0.0236,0.2206,0.814,2.016,0.38
4978.0,0.9653,-0.027,0.2211,0.135,1.772,0.159
4991.0,0.9693,-0.033,0.2217,0.524,1.573,-0.238
5004.0,0.9693,-0.0264,0.2155,1.875,1.474,-0.544
5017.0,0.9682,-0.0181,0.213,2.295,1.932,-0.635
5030.0,0.9668,-0.0155,0.2106,2.471,2.184,-0.704
5043.0,0.9663,-0.0071,0.2137,1.287,2.421,-0.46
5056.0,0.9621,-0.0078,0.2185,0.555,2.474,-0.124
5069.0,0.9668,-0.0183,0.2209,0.7,2.306,0.25
5082.0,0.967,-0.0234,0.2261,0.959,2.1,0.09
5095.0,0.9676,-0.0239,0.222,0.646,1.711,-0.071
5108.0,0.9674,-0.0258,0.2245,0.967,1.512,-0.551
5121.0,0.9686,-0.0242,0.2198,1.501,1.237,-0.979
5134.0,0.9663,-0.0112,0.2093,0.402,1.199,-1.032
