time,ax,ay,az,gx,gy,gz
0.0,0.8828,-0.0817,0.4469,-0.209,2.932,-0.162
12.0,0.8704,-0.0887,0.4522,-0.331,2.451,-0.33
25.0,0.8673,-0.101,0.4577,0.585,1.382,-1.009
38.0,0.8698,-0.093,0.4552,2.501,0.092,-1.712
51.0,0.8762,-0.0804,0.4374,3.669,-0.648,-2.071
64.0,0.8836,-0.0663,0.43,4.005,-0.389,-1.719
77.0,0.8886,-0.0542,0.4275,2.417,0.497,-0.971
90.0,0.8883,-0.0563,0.4242,-0.056,1.695,0.097
103.0,0.8774,-0.0736,0.4324,-1.316,2.375,1.013
116.0,0.8686,-0.0924,0.4361,-0.537,2.466,0.998
129.0,0.8684,-0.0935,0.4422,0.906,2.581,0.38
142.0,0.8691,-0.0862,0.4427,1.181,2.398,-0.2
155.0,0.8685,-0.0841,0.4455,1.066,2.077,-0.544
168.0,0.8786,-0.0807,0.4369,1.119,1.802,-0.62
181.0,0.8842,-0.0856,0.4323,0.791,1.65,-0.765
194.0,0.8896,-0.0931,0.4348,1.135,1.566,-0.994
207.0,0.8979,-0.0902,0.4385,2.432,1.215,-1.017
220.0,0.9016,-0.0768,0.4328,2.768,1.222,-0.635
233.0,0.9008,-0.0684,0.4447,2.341,2.024,0.097
246.0,0.8866,-0.0725,0.4602,0.585,2.138,0.769
259.0,0.873,-0.0786,0.4632,0.295,1.512,0.937
272.0,0.8595,-0.0866,0.4701,0.272,-0.007,0.296
285.0,0.8657,-0.0815,0.4604,0.921,-1.526,-0.177
298.0,0.8745,-0.0826,0.4423,1.15,-2.503,-0.498
311.0,0.8787,-0.0809,0.4291,1.715,-2.618,-0.811
324.0,0.8784,-0.0752,0.4247,1.784,-2.053,-0.872
337.0,0.8802,-0.072,0.4164,1.936,-1.152,-0.925
350.0,0.88,-0.0653,0.4132,1.776,0.054,-0.765
363.0,0.8712,-0.0632,0.4169,0.524,1.039,-0.246
376.0,0.8679,-0.0657,0.4197,-0.705,1.627,0.403
389.0,0.8648,-0.0763,0.4167,-1.11,2.047,0.685
402.0,0.863,-0.0813,0.4237,-0.247,2.001,0.754
415.0,0.8725,-0.0872,0.4204,0.715,1.779,0.349
428.0,0.8791,-0.074,0.4174,2.135,2.382,0.357
441.0,0.8798,-0.0657,0.4268,1.631,3.199,0.746
454.0,0.8825,-0.0726,0.4224,0.402,3.963,1.601
467.0,0.8855,-0.0887,0.4342,-0.529,4.734,1.868
480.0,0.8756,-0.1008,0.4413,0.432,4.795,1.388
493.0,0.8724,-0.0928,0.4431,1.058,4.321,0.51
506.0,0.8741,-0.09,0.4549,1.868,3.657,-0.009
519.0,0.8857,-0.0812,0.4551,2.348,2.802,0.082
532.0,0.8873,-0.0745,0.4466,1.646,2.405,0.349
545.0,0.8803,-0.0754,0.4479,1.142,2.047,0.609
558.0,0.88,-0.083,0.443,-0.079,1.688,0.693
571.0,0.8831,-0.092,0.4368,0.013,1.352,0.449
584.0,0.8862,-0.0957,0.4362,0.959,1.039,0.273
597.0,0.888,-0.0829,0.4366,1.631,1.421,0.197
610.0,0.8837,-0.0817,0.4379,1.478,2.031,0.441
623.0,0.8736,-0.084,0.4508,-0.117,2.077,0.609
636.0,0.8707,-0.0909,0.4479,-0.652,1.596,0.449
649.0,0.8719,-0.0939,0.4485,-0.598,1.062,-0.2
662.0,0.8747,-0.0955,0.4502,0.593,0.909,-0.788
675.0,0.8768,-0.0796,0.4453,1.822,0.528,-1.048
688.0,0.8769,-0.0675,0.4374,1.432,0.657,-0.811
701.0,0.8772,-0.0653,0.4346,0.234,0.314,-0.406
714.0,0.8869,-0.0765,0.4314,-0.896,0.619,-0.437
727.0,0.8842,-0.0814,0.4319,-0.247,1.077,-0.345
740.0,0.8757,-0.0829,0.4325,0.883,1.1,-0.261
753.0,0.8748,-0.0781,0.4311,1.234,0.757,-0.391
766.0,0.8778,-0.0785,0.4236,0.944,0.795,-0.727
779.0,0.8851,-0.0807,0.4317,0.768,1.062,-1.2
792.0,0.8879,-0.0758,0.423,1.577,1.451,-1.162
805.0,0.8845,-0.0681,0.4274,1.326,1.856,-0.689
818.0,0.8789,-0.068,0.4284,0.898,2.115,-0.093
831.0,0.8732,-0.0734,0.4292,0.448,2.451,0.388
844.0,0.8719,-0.0841,0.4358,-0.545,2.535,0.38
857.0,0.8765,-0.0959,0.4358,-0.316,2.344,0.105
870.0,0.8806,-0.0959,0.4351,1.15,2.184,-0.536
883.0,0.88,-0.083,0.4351,2.119,2.26,-0.925
896.0,0.8796,-0.0697,0.4325,2.371,2.382,-0.948
909.0,0.88,-0.071,0.4316,0.89,2.634,-0.635
922.0,0.8869,-0.0708,0.4379,-0.071,2.863,-0.635
935.0,0.8803,-0.088,0.4418,0.097,2.298,-0.674
948.0,0.8757,-0.0841,0.4419,2.387,1.413,-0.635
961.0,0.8781,-0.0701,0.4388,3.707,0.894,-0.322
974.0,0.8831,-0.0555,0.4308,2.265,1.008,0.136
987.0,0.8866,-0.0613,0.4261,-0.392,2.024,0.8
1000.0,0.8878,-0.0767,0.4322,-1.514,3.008,1.143
1013.0,0.874,-0.0938,0.4369,-1.216,3.115,1.265
1026.0,0.8648,-0.1047,0.4447,0.158,2.451,0.762
1039.0,0.8612,-0.0986,0.4411,1.906,1.665,-0.025
1052.0,0.8662,-0.0869,0.4355,2.188,1.65,-0.559
1065.0,0.8795,-0.0767,0.4229,0.868,1.818,-0.742
1078.0,0.8823,-0.079,0.422,-0.331,2.604,-0.704
1091.0,0.8857,-0.0792,0.4195,-0.026,3.344,-0.551
1104.0,0.8797,-0.0763,0.4131,0.646,3.795,-0.376
1117.0,0.8737,-0.0802,0.416,-0.3,4.131,-0.452
1130.0,0.8757,-0.0883,0.4145,0.28,4.818,-0.933
1143.0,0.8783,-0.0917,0.4279,1.463,5.398,-1.742
1156.0,0.8774,-0.0737,0.441,3.448,5.673,-1.941
1169.0,0.873,-0.0564,0.4482,3.173,5.589,-1.582
1182.0,0.8761,-0.0602,0.4576,1.265,4.818,-0.788
1195.0,0.8869,-0.072,0.4473,-0.491,4.367,-0.284
1208.0,0.8858,-0.0881,0.4484,-1.293,4.405,-0.33
1221.0,0.8811,-0.0968,0.4528,0.242,4.153,-0.628
1234.0,0.8796,-0.0892,0.4567,1.906,3.764,-0.941
1247.0,0.8762,-0.0803,0.4536,1.692,3.466,-1.269
1260.0,0.8709,-0.0885,0.4532,-0.102,3.001,-1.78
1273.0,0.8747,-0.1085,0.4486,-0.659,2.741,-2.437
1286.0,0.8809,-0.1196,0.4506,0.89,2.772,-3.46
1299.0,0.8789,-0.1126,0.4501,1.639,2.902,-4.551
1312.0,0.8809,-0.1085,0.4541,0.463,3.024,-5.506
1325.0,0.8807,-0.1144,0.461,0.127,2.642,-7.055
1338.0,0.8819,-0.1156,0.4671,0.333,2.627,-8.788
1351.0,0.8809,-0.1084,0.4716,1.608,1.718,-10.216
1364.0,0.8885,-0.1002,0.474,1.387,0.642,-11.193
1377.0,0.8913,-0.0905,0.4755,0.669,-0.243,-12.193
1390.0,0.8929,-0.0961,0.467,-0.285,-0.9,-13.055
1403.0,0.8872,-0.0972,0.464,0.463,-1.618,-14.33
1416.0,0.8831,-0.0737,0.4583,1.585,-2.549,-15.307
1429.0,0.8918,-0.0585,0.446,1.639,-3.213,-15.62
1442.0,0.8975,-0.0458,0.4381,1.57,-3.366,-15.376
1455.0,0.8984,-0.0386,0.4334,0.883,-3.205,-14.971
1468.0,0.8935,-0.0453,0.4329,-0.285,-2.778,-14.635
1481.0,0.8862,-0.0599,0.4267,-0.873,-2.373,-15.063
1494.0,0.882,-0.0614,0.4361,0.41,-2.014,-16.025
1507.0,0.879,-0.0481,0.4423,2.371,-2.19,-16.666
1520.0,0.8816,-0.0195,0.4496,2.142,-2.831,-16.529
1533.0,0.8834,-0.0125,0.4396,1.135,-3.014,-15.551
1546.0,0.8866,-0.0275,0.4281,-0.529,-2.839,-14.811
1559.0,0.8902,-0.0524,0.4186,-2.537,-2.098,-15.254
1572.0,0.885,-0.0831,0.4245,-3.171,-0.831,-16.903
1585.0,0.8817,-0.0931,0.4262,-1.43,-0.106,-19.864
1598.0,0.875,-0.0693,0.4383,0.723,-0.282,-22.681
1611.0,0.8707,-0.0507,0.4428,1.654,-1.427,-24.277
1624.0,0.8795,-0.0468,0.4344,1.753,-2.755,-25.788
1637.0,0.8973,-0.052,0.4226,0.791,-2.869,-27.933
1650.0,0.9011,-0.047,0.4226,2.203,-2.083,-30.979
1663.0,0.895,-0.0233,0.4235,2.761,-1.511,-33.185
1676.0,0.8903,0.0061,0.4247,3.936,-1.534,-34.086
1689.0,0.8953,0.035,0.4298,2.402,-1.763,-33.803
1702.0,0.9038,0.0339,0.4276,-0.3,-1.816,-33.368
1715.0,0.8988,0.009,0.4198,-2.743,-1.175,-33.773
1728.0,0.8847,-0.0098,0.4236,-1.789,-0.686,-35.49
1741.0,0.8768,-0.0093,0.4213,-0.4,-0.526,-38.139
1754.0,0.8789,0.0132,0.4206,0.829,-0.633,-40.246
1767.0,0.8775,0.0328,0.4162,-0.125,-0.931,-42.177
1780.0,0.8831,0.0361,0.4051,-1.629,-0.785,-43.719
1793.0,0.8913,0.0197,0.3986,-2.323,0.489,-45.643
1806.0,0.8805,0.0231,0.3986,-0.758,1.344,-48.338
1819.0,0.8592,0.0422,0.4088,-0.255,2.589,-50.261
1832.0,0.857,0.0677,0.4143,1.303,2.695,-52.055
1845.0,0.8543,0.0826,0.4185,-1.125,2.894,-53.994
1858.0,0.8538,0.0953,0.4284,-0.201,2.848,-56.261
1871.0,0.8532,0.1285,0.4224,-1.117,2.382,-58.399
1884.0,0.8446,0.1489,0.4191,-1.026,2.337,-58.826
1897.0,0.8431,0.1636,0.418,-0.903,2.222,-58.788
1910.0,0.8408,0.1731,0.4148,-1.178,2.352,-58.62
1923.0,0.8453,0.188,0.4192,1.188,2.535,-58.582
1936.0,0.8526,0.2225,0.4186,1.463,3.321,-58.979
1949.0,0.8402,0.2447,0.4178,-0.728,4.276,-58.658
1962.0,0.8261,0.2556,0.4163,-3.361,5.092,-57.109
1975.0,0.8225,0.256,0.4036,-5.598,6.512,-55.536
1988.0,0.8132,0.2363,0.4013,-7.827,7.993,-55.071
2001.0,0.8103,0.2108,0.3886,-6.11,9.749,-56.513
2014.0,0.8103,0.2389,0.409,-3.529,13.344,-59.971
2027.0,0.8004,0.2714,0.4468,-1.835,13.474,-60.009
2040.0,0.7913,0.2969,0.4344,-1.888,12.123,-59.177
2053.0,0.784,0.3081,0.4334,-5.499,12.428,-58.017
2066.0,0.784,0.3043,0.4295,-8.445,13.077,-57.223
2079.0,0.7845,0.2983,0.4407,-10.087,13.008,-56.925
2092.0,0.7889,0.2972,0.4428,-8.987,12.466,-57.582
2105.0,0.7734,0.3014,0.4541,-7.026,12.436,-58.658
2118.0,0.7627,0.3175,0.4507,-4.499,12.886,-60.017
2131.0,0.7495,0.3528,0.458,-2.659,12.825,-60.597
2144.0,0.7485,0.3959,0.4724,-3.163,10.818,-60.933
2157.0,0.7547,0.4261,0.47,-4.781,8.833,-60.666
2170.0,0.758,0.4515,0.4439,-4.652,8.482,-59.277
2183.0,0.7493,0.4753,0.4619,-6.621,10.902,-57.368
2196.0,0.7374,0.4755,0.4494,-7.942,10.787,-55.009
2209.0,0.7353,0.4855,0.4656,-7.468,11.711,-52.765
2222.0,0.7435,0.5085,0.4655,-6.193,11.68,-50.399
2235.0,0.7334,0.5277,0.4969,-6.522,10.36,-47.437
2248.0,0.729,0.5321,0.4676,-8.453,10.886,-45.048
2261.0,0.7194,0.5204,0.4864,-8.4,12.108,-42.406
2274.0,0.7103,0.5142,0.4908,-7.4,11.787,-40.078
2287.0,0.71,0.5371,0.4931,-6.728,10.856,-37.887
2300.0,0.7132,0.5592,0.5028,-6.919,10.802,-35.376
2313.0,0.7017,0.5568,0.5078,-7.659,9.68,-32.612
2326.0,0.6989,0.5731,0.5147,-4.881,8.726,-29.406
2339.0,0.7059,0.5874,0.5137,-4.14,7.505,-26.979
2352.0,0.7198,0.598,0.507,-5.125,7.382,-24.3
2365.0,0.7172,0.5796,0.5142,-6.468,6.222,-21.406
2378.0,0.7148,0.5688,0.4911,-6.285,4.932,-18.918
2391.0,0.7187,0.5686,0.4859,-6.155,6.795,-15.857
2404.0,0.7058,0.5635,0.5076,-6.911,7.024,-14.238
2417.0,0.6916,0.5422,0.5077,-6.171,5.856,-13.406
2430.0,0.6955,0.5409,0.5125,-6.125,6.436,-12.33
2443.0,0.7031,0.5306,0.5176,-5.59,5.932,-12.025
2456.0,0.7031,0.5264,0.5194,-4.636,6.062,-12.819
2469.0,0.6978,0.5398,0.5257,-1.888,6.085,-13.292
2482.0,0.6851,0.5564,0.5352,0.356,4.451,-13.071
2495.0,0.6923,0.5696,0.5334,1.013,2.283,-11.994
2508.0,0.7042,0.5665,0.5241,0.112,1.787,-11.376
2521.0,0.7048,0.5518,0.5258,-0.262,2.482,-11.208
2534.0,0.6987,0.5486,0.534,2.387,3.26,-11.2
2547.0,0.6923,0.5686,0.5513,6.6,2.092,-10.467
2560.0,0.6925,0.6022,0.5451,8.585,0.298,-9.643
2573.0,0.6905,0.6124,0.5404,6.31,-1.587,-7.987
2586.0,0.6894,0.6033,0.5249,3.562,-2.389,-5.941
2599.0,0.6899,0.5839,0.5108,2.646,-3.045,-4.132
2612.0,0.6903,0.5815,0.5102,3.7,-3.457,-2.147
2625.0,0.6905,0.5859,0.5072,3.807,-3.633,0.197
2638.0,0.6839,0.5815,0.4965,2.417,-3.198,2.433
2651.0,0.6766,0.567,0.4939,1.257,-2.595,4.258
2664.0,0.6765,0.5505,0.4882,1.249,-2.724,5.357
2677.0,0.6856,0.5483,0.4921,3.196,-2.457,6.082
2690.0,0.6873,0.5537,0.4926,4.883,-2.152,6.762
2703.0,0.6845,0.5563,0.4947,5.333,-2.007,7.479
2716.0,0.6839,0.5643,0.4991,5.944,-2.35,8.739
2729.0,0.6833,0.5682,0.5078,5.738,-3.709,10.41
2742.0,0.6908,0.5765,0.5083,6.555,-5.076,12.349
2755.0,0.708,0.5906,0.5034,7.883,-5.877,14.51
2768.0,0.7257,0.6086,0.4997,8.417,-6.213,17.533
2781.0,0.7371,0.6063,0.5031,6.883,-6.091,20.571
2794.0,0.738,0.6018,0.512,7.074,-5.999,23.578
2807.0,0.7338,0.6023,0.5122,6.753,-6.198,26.487
2820.0,0.729,0.5992,0.5164,6.036,-7.297,29.388
2833.0,0.7208,0.5832,0.5089,4.165,-8.908,32.151
2846.0,0.7318,0.5586,0.5191,4.501,-10.915,34.013
2859.0,0.749,0.5605,0.5146,7.31,-13.763,35.487
2872.0,0.7609,0.5684,0.5085,10.936,-16.656,38.159
2885.0,0.7663,0.5881,0.5014,14.196,-18.778,41.227
2898.0,0.7741,0.6136,0.4934,16.738,-20.037,44.647
2911.0,0.7863,0.6306,0.4923,16.326,-21.297,48.12
2924.0,0.795,0.6365,0.4753,13.509,-21.671,52.013
2937.0,0.7906,0.6251,0.4495,13.188,-19.999,58.09
2950.0,0.7729,0.5902,0.4352,6.333,-18.03,63.784
2963.0,0.7733,0.5127,0.4324,0.57,-17.404,67.433
2976.0,0.776,0.4265,0.4228,-0.384,-16.763,67.128
2989.0,0.7733,0.3848,0.4204,6.883,-16.152,65.319
3002.0,0.7739,0.4011,0.4319,14.242,-17.144,63.731
3015.0,0.7666,0.4215,0.417,16.646,-18.495,64.128
3028.0,0.776,0.4309,0.4112,18.455,-18.976,65.159
3041.0,0.7934,0.441,0.3936,18.043,-18.419,66.502
3054.0,0.7996,0.4388,0.3933,18.425,-16.717,69.273
3067.0,0.7972,0.4283,0.3881,16.478,-15.236,72.174
3080.0,0.7913,0.4064,0.383,13.631,-13.785,75.136
3093.0,0.7852,0.3655,0.3799,12.448,-12.549,77.273
3106.0,0.7784,0.3337,0.377,10.745,-11.259,78.166
3119.0,0.7721,0.2863,0.3739,8.753,-10.404,78.884
3132.0,0.7657,0.248,0.3719,7.982,-10.442,78.632
3145.0,0.7757,0.2089,0.366,9.486,-11.19,76.899
3158.0,0.7939,0.1959,0.352,12.89,-11.007,74.044
3171.0,0.802,0.2109,0.3461,18.219,-9.961,72.059
3184.0,0.8165,0.2473,0.3358,21.127,-9.014,72.357
3197.0,0.837,0.2632,0.3249,18.318,-7.64,74.929
3210.0,0.8432,0.2179,0.3211,12.318,-5.702,76.525
3223.0,0.8483,0.1694,0.318,10.364,-2.778,75.998
3236.0,0.8409,0.1522,0.3319,11.265,-0.419,75.166
3249.0,0.8305,0.141,0.339,11.753,0.131,75.204
3262.0,0.8344,0.1218,0.3428,10.723,0.047,75.678
3275.0,0.8453,0.073,0.3648,7.753,-0.472,74.7
3288.0,0.8557,0.0457,0.3101,8.081,-0.137,72.494
3301.0,0.8582,0.0227,0.3444,7.234,2.131,70.403
3314.0,0.8729,-0.0216,0.3532,7.455,1.825,67.838
3327.0,0.887,-0.0524,0.3669,11.234,1.955,64.678
3340.0,0.8979,-0.0615,0.3803,15.555,1.489,59.601
3353.0,0.8952,-0.0369,0.3915,18.577,1.016,55.288
3366.0,0.8852,-0.0327,0.3977,18.57,-0.091,52.555
3379.0,0.888,-0.0313,0.3969,17.478,-2.068,50.632
3392.0,0.9067,-0.0485,0.3855,14.99,-3.885,49.197
3405.0,0.9256,-0.0743,0.3647,11.616,-4.862,47.464
3418.0,0.9442,-0.1083,0.3443,9.99,-4.679,44.304
3431.0,0.9458,-0.1246,0.3439,9.936,-4.022,40.265
3444.0,0.9282,-0.1364,0.3318,8.379,-3.61,36.998
3457.0,0.9174,-0.1639,0.3225,6.577,-2.694,33.51
3470.0,0.9212,-0.1935,0.3341,6.608,-2.465,30.861
3483.0,0.9256,-0.2118,0.3277,6.348,-3.579,26.968
3496.0,0.9347,-0.2034,0.3212,7.371,-2.946,22.281
3509.0,0.9381,-0.1943,0.329,7.761,-2.114,18.265
3522.0,0.929,-0.1907,0.3227,6.608,-1.182,14.349
3535.0,0.918,-0.2054,0.3233,5.814,-0.503,10.296
3548.0,0.9204,-0.2058,0.3316,8.516,0.398,5.769
3561.0,0.9216,-0.1685,0.3402,11.265,1.153,1.487
3574.0,0.9184,-0.1196,0.3544,12.203,1.825,-0.109
3587.0,0.921,-0.0902,0.3605,9.066,1.428,-0.704
3600.0,0.9245,-0.0907,0.354,5.364,0.382,-1.628
3613.0,0.9311,-0.0925,0.3539,4.593,-0.335,-2.872
3626.0,0.9405,-0.0761,0.3546,7.463,-0.953,-2.987
3639.0,0.9386,-0.0334,0.3484,9.868,-1.732,-1.689
3652.0,0.9322,0.0027,0.3452,6.723,-2.45,1.296
3665.0,0.9378,-0.005,0.3365,0.837,-2.862,4.128
3678.0,0.939,-0.0422,0.3261,-4.224,-1.778,5.586
3691.0,0.9288,-0.0818,0.3181,-3.919,-0.305,5.456
3704.0,0.9132,-0.0907,0.3317,-1.896,0.184,4.968
3717.0,0.9073,-0.0936,0.335,0.6,-0.205,4.746
3730.0,0.9055,-0.0917,0.3377,2.135,-0.343,4.006
3743.0,0.9124,-0.0879,0.335,2.41,-0.251,2.907
3756.0,0.9139,-0.0707,0.3279,2.341,0.497,2.281
3769.0,0.9137,-0.0605,0.3308,1.868,0.993,2.922
3782.0,0.9183,-0.0575,0.3387,1.371,0.596,3.708
3795.0,0.9259,-0.0724,0.3327,-0.285,0.413,3.678
3808.0,0.924,-0.0981,0.335,0.913,0.695,2.899
3821.0,0.9211,-0.0952,0.3302,3.28,0.695,1.96
3834.0,0.9228,-0.0729,0.329,3.341,1.237,1.716
3847.0,0.9248,-0.0675,0.3223,0.158,2.222,1.945
3860.0,0.925,-0.082,0.3271,-1.987,3.375,1.8
3873.0,0.9171,-0.1041,0.3345,-2.919,3.726,1.151
3886.0,0.9137,-0.1133,0.3561,1.173,2.627,-0.376
3899.0,0.9205,-0.0857,0.3516,5.539,0.505,-1.78
3912.0,0.9248,-0.0477,0.3492,6.929,-1.022,-1.185
3925.0,0.9373,-0.0382,0.3286,4.31,-1.404,-0.116
3938.0,0.9448,-0.042,0.3156,0.608,0.459,0.746
3951.0,0.9464,-0.0568,0.3111,-1.85,2.833,0.784
3964.0,0.9345,-0.074,0.3189,-3.415,4.466,0.441
3977.0,0.921,-0.0853,0.3326,-2.56,4.718,0.258
3990.0,0.9141,-0.0883,0.333,-1.423,3.757,0.082
4003.0,0.9111,-0.1018,0.3317,-1.407,2.848,-0.567
4016.0,0.9183,-0.1094,0.335,0.524,2.611,-1.567
4029.0,0.9282,-0.0957,0.3402,3.074,2.39,-3.154
4042.0,0.9373,-0.0707,0.3455,3.585,3.008,-4.452
4055.0,0.9321,-0.056,0.3562,2.967,3.108,-4.437
4068.0,0.9299,-0.0457,0.3578,2.043,2.207,-4.185
4081.0,0.9298,-0.0469,0.3578,0.761,1.062,-3.803
4094.0,0.9376,-0.051,0.3555,2.036,-0.045,-3.353
4107.0,0.9428,-0.0342,0.3456,3.898,-0.526,-2.712
4120.0,0.9404,-0.0142,0.3492,3.532,-0.48,-1.315
4133.0,0.9382,-0.0129,0.3366,0.822,-0.579,0.288
4146.0,0.9331,-0.0372,0.3251,-2.461,-0.007,1.533
4159.0,0.9222,-0.0686,0.3178,-4.438,0.741,1.968
4172.0,0.9118,-0.0973,0.3155,-4.125,1.268,1.403
4185.0,0.9068,-0.099,0.3097,-2.331,1.573,-0.399
4198.0,0.9095,-0.0951,0.3149,-0.377,2.054,-1.46
4211.0,0.9052,-0.0829,0.3178,0.936,2.329,-1.643
4224.0,0.9118,-0.08,0.3196,1.44,2.581,-1.727
4237.0,0.9193,-0.0859,0.3164,0.379,3.268,-2.872
4250.0,0.9139,-0.0918,0.3239,0.104,4.665,-4.452
4263.0,0.9113,-0.0876,0.3341,1.57,5.283,-5.796
4276.0,0.9215,-0.0671,0.3428,2.776,5.131,-6.315
4289.0,0.929,-0.0449,0.3509,2.051,4.611,-5.773
4302.0,0.9339,-0.0504,0.3512,0.173,3.97,-4.78
4315.0,0.9337,-0.067,0.3496,-0.812,3.153,-4.788
4328.0,0.9362,-0.0732,0.3439,-0.239,2.886,-5.567
4341.0,0.9377,-0.0645,0.3432,0.181,2.741,-6.063
4354.0,0.9349,-0.0579,0.3354,-0.735,2.596,-5.773
4367.0,0.9395,-0.0658,0.3269,-3.003,2.886,-5.628
4380.0,0.9475,-0.0858,0.3243,-4.858,4.382,-6.307
4393.0,0.9399,-0.1115,0.3351,-5.537,5.993,-7.689
4406.0,0.9257,-0.1232,0.359,-3.751,6.237,-9.719
4419.0,0.9135,-0.1134,0.3675,-0.705,5.924,-12.025
4432.0,0.9079,-0.0927,0.378,1.654,4.963,-13.361
4445.0,0.9222,-0.0668,0.3638,-1.308,2.711,-16.009
4458.0,0.9282,-0.0919,0.3518,-6.255,2.062,-19.269
4471.0,0.9289,-0.1008,0.3522,-3.186,1.871,-21.025
4484.0,0.9267,-0.0881,0.338,-0.224,1.451,-22.3
4497.0,0.9276,-0.0726,0.3319,-0.949,1.398,-23.803
4510.0,0.9296,-0.0692,0.3239,-3.148,1.688,-25.719
4523.0,0.9292,-0.0724,0.316,-5.415,2.787,-27.59
4536.0,0.9178,-0.0796,0.3094,-6.636,4.337,-28.78
4549.0,0.9174,-0.0856,0.313,-7.247,5.413,-30.406
4562.0,0.9172,-0.0789,0.3168,-7.812,6.413,-33.368
4575.0,0.9102,-0.077,0.3439,-7.506,6.665,-36.193
4588.0,0.9167,-0.0554,0.3589,-2.438,5.65,-38.475
4601.0,0.9205,-0.0234,0.3695,0.684,4.108,-39.979
4614.0,0.9124,0.0166,0.3673,0.883,2.741,-40.437
4627.0,0.9117,0.0349,0.3625,-2.377,1.863,-40.093
4640.0,0.9227,0.0283,0.3516,-5.819,2.169,-40.628
4653.0,0.9249,0.022,0.357,-7.819,3.489,-41.834
4666.0,0.9178,0.0243,0.3617,-6.881,3.611,-42.987
4679.0,0.9043,0.0486,0.3706,-4.98,3.008,-43.544
4692.0,0.9049,0.0717,0.3753,-4.4,1.474,-43.704
4705.0,0.9082,0.0847,0.3645,-5.193,0.092,-43.887
4718.0,0.9072,0.0898,0.3507,-7.339,-0.068,-44.055
4731.0,0.9033,0.0889,0.3467,-8.285,0.68,-44.338
4744.0,0.8991,0.0898,0.3388,-9.43,1.291,-45.025
4757.0,0.9012,0.0969,0.3349,-9.339,2.306,-45.948
4770.0,0.8942,0.1071,0.3367,-9.331,3.512,-46.727
4783.0,0.8861,0.1135,0.338,-11.552,4.688,-47.559
4796.0,0.8781,0.1135,0.3305,-12.499,6.047,-48.628
4809.0,0.8663,0.0931,0.3454,-14.369,7.573,-50.216
4822.0,0.8703,0.0914,0.3543,-11.652,8.268,-52.964
4835.0,0.8687,0.1039,0.3636,-9.934,8.367,-56.75
4848.0,0.8684,0.1315,0.3675,-8.041,8.016,-60.383
4861.0,0.8598,0.1589,0.3704,-7.865,7.382,-63.46
4874.0,0.8554,0.1904,0.365,-8.568,6.879,-65.551
4887.0,0.8508,0.2093,0.3654,-9.56,7.047,-66.132
4900.0,0.8448,0.2174,0.355,-10.98,7.138,-66.658
4913.0,0.8419,0.2222,0.3481,-12.842,7.543,-68.124
4926.0,0.8461,0.2338,0.3344,-14.613,8.993,-70.605
4939.0,0.844,0.2438,0.3407,-15.888,11.566,-73.368
4952.0,0.8354,0.2576,0.3347,-16.682,13.818,-76.078
4965.0,0.8263,0.2902,0.3407,-15.888,16.222,-77.91
4978.0,0.8134,0.3192,0.3511,-16.018,18.268,-78.933
4991.0,0.8001,0.3337,0.3785,-15.262,18.924,-79.712
5004.0,0.7948,0.3571,0.388,-13.323,18.482,-80.88
5017.0,0.7816,0.3903,0.3915,-11.239,18.024,-80.895
5030.0,0.7827,0.4231,0.394,-10.445,18.451,-79.696
5043.0,0.7916,0.4352,0.3799,-13.835,20.68,-78.666
5056.0,0.7741,0.4656,0.3972,-17.491,24.932,-76.628
5069.0,0.7381,0.4517,0.4453,-20.087,24.535,-73.506
5082.0,0.7268,0.4403,0.4335,-20.094,23.558,-72.475
5095.0,0.7126,0.4203,0.4617,-17.636,22.863,-72.261
5108.0,0.6964,0.4292,0.4818,-11.453,19.321,-73.292
5121.0,0.6995,0.4821,0.4823,-3.667,15.97,-73.361
5134.0,0.7022,0.537,0.4927,1.44,12.703,-71.735
5147.0,0.7143,0.5946,0.4684,2.097,8.917,-69.3
5160.0,0.7133,0.6188,0.4601,-2.239,7.52,-65.735
5173.0,0.7152,0.6207,0.4533,-5.331,7.917,-62.437
5186.0,0.7104,0.6289,0.4612,-5.01,8.108,-57.574
5199.0,0.7075,0.6422,0.453,-4.728,7.657,-52.819
5212.0,0.7059,0.6484,0.4483,-6.224,8.199,-48.735
5225.0,0.6943,0.6444,0.4618,-7.201,8.031,-45.628
5238.0,0.6883,0.6508,0.4574,-6.262,7.138,-43.223
5251.0,0.6908,0.6593,0.4466,-5.652,7.482,-40.284
5264.0,0.6847,0.6685,0.469,-3.552,6.749,-37.216
5277.0,0.6892,0.6874,0.4682,-2.59,5.253,-33.467
5290.0,0.6934,0.691,0.4709,-2.384,4.077,-29.185
5303.0,0.6981,0.6937,0.4632,-3.346,4.413,-25.345
5316.0,0.6898,0.6786,0.4612,-5.56,5.84,-22.399
5329.0,0.6678,0.6605,0.4827,-4.277,5.375,-19.414
5342.0,0.6643,0.6511,0.4765,-3.728,4.97,-17.132
5355.0,0.6543,0.6396,0.4897,-0.606,4.1,-14.941
5368.0,0.6517,0.6465,0.492,3.791,1.657,-13.307
5381.0,0.6618,0.6763,0.4947,7.066,-0.182,-11.88
5394.0,0.6779,0.7106,0.4853,7.608,-1.335,-9.414
5407.0,0.6833,0.735,0.4793,3.776,-1.022,-6.124
5420.0,0.6783,0.7209,0.4738,-0.102,-0.396,-2.383
5433.0,0.6683,0.6847,0.4683,-2.545,-0.511,0.769
5446.0,0.6662,0.6539,0.448,-2.98,-0.869,2.861
5459.0,0.6685,0.6239,0.4414,-2.377,-0.037,4.586
5472.0,0.6704,0.602,0.4475,-0.804,0.26,5.059
5485.0,0.6651,0.5885,0.4579,1.669,0.291,4.502
5498.0,0.6582,0.6012,0.4721,4.631,-0.083,4.143
5511.0,0.6626,0.6327,0.4649,6.501,0.008,4.823
5524.0,0.6607,0.6478,0.463,2.997,0.611,5.96
5537.0,0.6601,0.6282,0.4611,-2.01,1.26,7.334
5550.0,0.6565,0.5909,0.4706,-4.743,1.512,7.662
5563.0,0.6558,0.5569,0.4787,-2.087,0.497,6.739
5576.0,0.6527,0.5674,0.4884,5.669,-1.144,5.708
5589.0,0.6582,0.6211,0.4868,11.02,-3.564,5.548
5602.0,0.6754,0.6816,0.4704,12.959,-5.373,7.403
5615.0,0.6989,0.7168,0.4595,9.868,-5.755,10.227
5628.0,0.7094,0.7266,0.4518,7.44,-4.953,14.471
5641.0,0.7114,0.7257,0.4513,6.654,-4.228,19.418
5654.0,0.7087,0.7259,0.4573,7.807,-4.251,24.746
5667.0,0.7115,0.7334,0.4485,7.639,-4.74,30.189
5680.0,0.7168,0.7361,0.4495,5.623,-4.869,36.586
5693.0,0.723,0.712,0.4471,2.432,-4.923,43.372
5706.0,0.729,0.6725,0.4514,-1.056,-4.717,48.426
5719.0,0.7186,0.6212,0.4628,-1.216,-4.824,52.136
5732.0,0.7102,0.5906,0.4756,1.104,-6.381,54.334
5745.0,0.7002,0.5867,0.4864,4.013,-8.77,56.38
5758.0,0.7003,0.5719,0.4783,4.043,-11.686,58.647
5771.0,0.7063,0.5489,0.4671,4.539,-14.648,60.403
5784.0,0.7295,0.5269,0.4357,3.57,-14.411,59.754
5797.0,0.7378,0.5272,0.4358,5.341,-12.847,58.952
5810.0,0.7296,0.538,0.4305,6.967,-12.999,59.601
5823.0,0.7338,0.5371,0.4112,6.845,-13.793,62.326
5836.0,0.757,0.5275,0.3976,6.203,-13.679,65.029
5849.0,0.7743,0.5098,0.3908,4.074,-12.243,66.296
5862.0,0.785,0.4969,0.399,4.348,-10.282,66.83
5875.0,0.7817,0.4907,0.409,5.791,-9.511,68.159
5888.0,0.7769,0.4868,0.4103,6.532,-10.144,70.403
5901.0,0.7849,0.4562,0.4095,5.837,-10.816,72.151
5914.0,0.7948,0.4163,0.4069,5.242,-10.892,72.288
5927.0,0.7988,0.3968,0.418,9.348,-10.579,71.952
5940.0,0.8132,0.4266,0.4269,15.326,-11.488,71.968
5953.0,0.8248,0.4346,0.4524,17.203,-13.19,73.83
5966.0,0.8365,0.4374,0.4499,21.203,-15.053,77.426
5979.0,0.835,0.4255,0.4348,19.753,-16.518,80.991
5992.0,0.8271,0.4003,0.4206,16.494,-17.992,83.197
6005.0,0.8255,0.3633,0.4038,11.448,-19.541,84.006
6018.0,0.8259,0.3087,0.3899,9.929,-21.618,84.739
6031.0,0.8254,0.252,0.3755,13.822,-24.526,85.021
6044.0,0.8404,0.229,0.3504,21.036,-27.389,84.617
6057.0,0.8678,0.2466,0.3083,26.356,-26.534,84.013
6070.0,0.8745,0.2589,0.2913,22.952,-22.709,83.449
6083.0,0.8656,0.2476,0.2725,16.478,-18.198,83.746
6096.0,0.8535,0.192,0.2768,9.623,-13.976,83.22
6109.0,0.8482,0.1443,0.2937,8.814,-11.434,81.632
6122.0,0.8352,0.092,0.2843,9.646,-10.335,79.075
6135.0,0.8371,0.0749,0.2838,16.119,-9.358,76.441
6148.0,0.8381,0.0559,0.2964,14.158,-9.076,73.212
6161.0,0.8348,0.0371,0.2825,15.776,-8.946,70.647
6174.0,0.8432,0.007,0.2853,13.829,-7.923,67.006
6187.0,0.8764,-0.0144,0.2802,14.837,-5.556,62.006
6200.0,0.8892,-0.0254,0.2805,14.745,-3.175,56.67
6213.0,0.8805,-0.0299,0.2862,16.058,-0.648,52.479
6226.0,0.8704,-0.0448,0.2787,16.097,-0.053,49.418
6239.0,0.8687,-0.0665,0.2908,15.959,1.054,47.105
6252.0,0.8888,-0.0855,0.3024,17.028,0.764,43.288
6265.0,0.9123,-0.0699,0.2814,15.883,1.115,38.471
6278.0,0.9263,-0.0687,0.2876,14.7,2.245,34.41
6291.0,0.9278,-0.0726,0.2863,14.791,2.069,31.403
6304.0,0.9351,-0.0562,0.2986,18.272,1.52,29.273
6317.0,0.9422,-0.0415,0.2947,18.936,1.069,27.739
6330.0,0.9453,-0.0421,0.2913,19.547,2.077,27.693
6343.0,0.9423,-0.0372,0.3087,17.203,2.757,28.991
6356.0,0.9461,-0.0458,0.3153,13.112,1.489,30.846
6369.0,0.9533,-0.0892,0.2987,6.814,2.184,29.418
6382.0,0.9498,-0.1266,0.3069,5.364,3.673,26.25
6395.0,0.9268,-0.1549,0.3174,5.234,3.718,22.624
6408.0,0.9187,-0.1675,0.3074,7.929,2.711,19.937
6421.0,0.9205,-0.1586,0.3039,10.845,1.84,18.097
6434.0,0.9333,-0.1365,0.3129,12.15,0.489,16.907
6447.0,0.9458,-0.1223,0.2954,9.074,1.68,14.304
6460.0,0.9376,-0.123,0.3017,7.761,4.069,11.991
6473.0,0.9226,-0.1187,0.3157,5.119,4.291,10.006
6486.0,0.9195,-0.1261,0.3051,3.486,3.077,8.777
6499.0,0.9307,-0.1477,0.2997,2.608,1.871,6.594
6512.0,0.9459,-0.1533,0.2932,4.791,1.955,3.334
6525.0,0.9454,-0.124,0.2978,8.265,3.085,0.555
6538.0,0.9464,-0.083,0.298,9.028,3.856,-0.33
6551.0,0.9386,-0.0515,0.3035,6.646,4.909,0.853
6564.0,0.9321,-0.0524,0.313,0.203,5.276,2.12
6577.0,0.9329,-0.0875,0.3201,-4.087,4.795,1.899
6590.0,0.936,-0.1136,0.317,-3.041,4.306,0.319
6603.0,0.9392,-0.1071,0.3302,2.562,3.451,-1.154
6616.0,0.9388,-0.0723,0.324,5.142,1.703,-1.521
6629.0,0.9488,-0.0444,0.3175,5.509,0.627,-1.002
6642.0,0.9515,-0.0319,0.3083,2.715,1.23,-0.406
6655.0,0.9447,-0.0386,0.304,0.104,2.703,0.815
6668.0,0.937,-0.0538,0.3046,-1.484,3.695,1.479
6681.0,0.9456,-0.0679,0.3074,-3.193,4.237,0.884
6694.0,0.9338,-0.0817,0.3128,-3.842,4.451,0.372
6707.0,0.914,-0.0874,0.3096,-2.812,3.978,0.242
6720.0,0.9185,-0.0826,0.3063,-0.674,3.512,-0.467
6733.0,0.9288,-0.0695,0.3084,0.058,3.367,-1.964
6746.0,0.9237,-0.0704,0.2934,-1.01,4.146,-2.704
6759.0,0.9329,-0.0708,0.3063,0.776,5.253,-2.918
6772.0,0.9399,-0.0531,0.3169,1.715,5.886,-3.399
6785.0,0.9283,-0.0383,0.3206,-0.155,5.879,-2.536
6798.0,0.9202,-0.0432,0.3206,-1.842,5.245,-1.78
6811.0,0.9331,-0.0553,0.3268,-2.178,4.993,-2.277
6824.0,0.9372,-0.0531,0.3273,-1.331,4.734,-2.551
6837.0,0.9323,-0.0494,0.3262,1.119,3.947,-1.529
6850.0,0.9416,-0.0363,0.3284,2.494,3.215,-1.254
6863.0,0.9417,-0.0287,0.3227,-0.018,3.024,-1.33
6876.0,0.9365,-0.0397,0.3196,-2.316,3.176,-0.895
6889.0,0.9421,-0.0525,0.3225,-2.4,3.039,-0.765
6902.0,0.9441,-0.0525,0.3268,-2.102,2.65,-0.971
6915.0,0.9455,-0.0503,0.3177,-0.858,2.444,-0.964
6928.0,0.9404,-0.0479,0.323,0.119,2.451,-1.231
6941.0,0.9414,-0.0409,0.3253,1.974,2.604,-1.422
6954.0,0.9353,-0.0251,0.3321,1.761,2.069,-1.139
6967.0,0.9345,-0.0225,0.3234,0.181,1.673,-0.216
6980.0,0.9322,-0.0348,0.3191,-1.522,1.52,0.51
6993.0,0.9287,-0.0416,0.3117,-2.713,1.573,0.853
7006.0,0.9283,-0.0518,0.3076,-3.506,2.001,1.105
7019.0,0.9325,-0.0642,0.3094,-2.674,2.52,0.884
7032.0,0.9227,-0.0626,0.3111,-1.522,3.008,0.365
7045.0,0.9249,-0.0632,0.3177,-0.621,3.092,-0.49
7058.0,0.9263,-0.0665,0.3294,0.364,2.894,-1.254
7071.0,0.9244,-0.0562,0.3208,2.31,2.26,-1.467
7084.0,0.922,-0.0441,0.3243,1.967,1.848,-1.277
7097.0,0.934,-0.0437,0.3095,1.081,1.688,-1.086
7110.0,0.9351,-0.0486,0.3094,-0.491,2.161,-0.971
7123.0,0.9387,-0.0576,0.304,-0.384,2.581,-0.964
7136.0,0.9383,-0.0592,0.3095,-0.415,3.169,-1.086
7149.0,0.9393,-0.0565,0.3189,0.188,3.436,-1.277
7162.0,0.9382,-0.0498,0.3202,0.326,3.726,-1.139
7175.0,0.9336,-0.0441,0.3305,0.432,3.757,-0.796
7188.0,0.9304,-0.0446,0.325,-0.285,3.283,-0.727
7201.0,0.9244,-0.0468,0.3275,-1.575,3.199,-0.33
7214.0,0.9238,-0.0598,0.3221,-1.987,2.558,-0.124
7227.0,0.9344,-0.0676,0.3241,-1.537,2.489,-0.521
7240.0,0.9312,-0.0663,0.3153,-0.56,2.665,-0.773
7253.0,0.9279,-0.0609,0.32,0.104,2.986,-1.208
7266.0,0.9301,-0.0557,0.3264,0.379,2.97,-1.765
7279.0,0.9265,-0.0475,0.3282,0.524,2.55,-1.834
7292.0,0.9318,-0.0452,0.326,0.669,2.169,-1.452
7305.0,0.9382,-0.046,0.324,0.723,2.176,-1.529
7318.0,0.9327,-0.0407,0.3299,0.677,2.421,-1.223
7331.0,0.9333,-0.0328,0.3323,1.348,2.444,-0.681
7344.0,0.9384,-0.0297,0.3313,0.906,2.505,-0.33
7357.0,0.9339,-0.028,0.3318,-0.262,2.818,-0.009
7370.0,0.9338,-0.0293,0.331,-1.27,2.619,0.426
7383.0,0.9285,-0.045,0.3286,-1.713,2.306,0.655
7396.0,0.9251,-0.0497,0.3296,-1.659,1.993,0.555
7409.0,0.9251,-0.0563,0.3225,-0.667,1.833,0.021
7422.0,0.9305,-0.0566,0.3091,0.112,2.085,-0.62
7435.0,0.9328,-0.0509,0.3157,0.203,2.65,-0.796
7448.0,0.9354,-0.0513,0.3197,0.577,3.245,-0.803
7461.0,0.93,-0.0477,0.3216,0.959,3.718,-0.918
7474.0,0.9248,-0.0396,0.3319,1.203,3.619,-0.605
7487.0,0.9251,-0.0325,0.333,1.265,3.573,0.021
7500.0,0.9283,-0.0355,0.3337,0.348,3.428,0.456
7513.0,0.9281,-0.043,0.3321,-1.026,3.306,0.586
7526.0,0.9309,-0.0546,0.3282,-0.903,3.398,0.578
7539.0,0.925,-0.054,0.3291,-0.064,3.726,0.25
7552.0,0.9235,-0.045,0.3341,0.28,3.489,-0.025
7565.0,0.9253,-0.0369,0.33,0.265,3.138,-0.132
7578.0,0.9281,-0.0358,0.3306,-0.125,2.871,0.326
7591.0,0.9289,-0.0382,0.3253,-0.461,2.68,0.853
7604.0,0.9317,-0.0441,0.3218,-0.804,2.665,1.189
7617.0,0.9246,-0.0575,0.3205,-0.98,2.726,1.082
7630.0,0.9306,-0.0603,0.319,0.738,2.543,0.632
7643.0,0.9342,-0.0524,0.3185,1.822,3.039,0.044
7656.0,0.9406,-0.0426,0.319,1.577,3.627,-0.177
7669.0,0.9349,-0.0375,0.3268,0.898,4.207,0.273
7682.0,0.9309,-0.0408,0.3321,-0.087,4.604,0.884
7695.0,0.9287,-0.0491,0.334,-0.911,4.283,1.197
7708.0,0.9284,-0.0636,0.3372,-1.056,3.963,1.013
7721.0,0.931,-0.069,0.3402,0.57,3.718,0.617
7734.0,0.9292,-0.0551,0.3428,1.974,3.184,0.601
7747.0,0.9278,-0.0465,0.3389,1.73,2.833,1.395
7760.0,0.9315,-0.0463,0.3437,1.051,2.718,2.128
7773.0,0.9342,-0.0509,0.3365,-0.499,3.1,1.96
7786.0,0.9229,-0.061,0.3432,-1.071,3.596,1.929
7799.0,0.9167,-0.067,0.3481,-0.209,3.23,1.899
7812.0,0.9155,-0.061,0.3454,-0.148,2.375,1.792
7825.0,0.909,-0.0614,0.3388,-0.812,1.924,1.777
7838.0,0.9179,-0.0674,0.3293,-1.438,1.581,1.113
7851.0,0.9242,-0.0708,0.3202,-0.942,2.314,0.296
7864.0,0.9325,-0.063,0.3224,1.112,3.024,-0.284
7877.0,0.9321,-0.0479,0.3297,1.639,3.558,-0.513
7890.0,0.9249,-0.0369,0.3224,1.692,3.947,-0.223
7903.0,0.9249,-0.0325,0.3233,0.005,4.123,0.075
7916.0,0.9326,-0.0364,0.3273,-1.178,4.81,0.41
7929.0,0.9381,-0.0521,0.3291,-1.881,5.321,0.563
7942.0,0.9337,-0.064,0.3406,-1.277,5.55,0.479
7955.0,0.9309,-0.0646,0.3477,0.608,5.398,-0.009
7968.0,0.9244,-0.0558,0.3543,0.501,5.192,-0.758
7981.0,0.9217,-0.0549,0.3554,0.639,4.741,-0.971
7994.0,0.9205,-0.0575,0.3603,0.791,4.062,-0.849
8007.0,0.9221,-0.0555,0.3647,1.242,3.161,-0.933
8020.0,0.9271,-0.045,0.3518,1.822,2.879,-0.574
8033.0,0.9265,-0.0424,0.3503,1.051,2.673,-0.2
8046.0,0.9263,-0.0433,0.3439,-0.148,2.436,0.021
8059.0,0.9226,-0.0518,0.3369,-1.216,2.512,0.021
8072.0,0.9207,-0.0536,0.3396,-0.949,2.008,-0.071
8085.0,0.9249,-0.0558,0.3321,0.387,1.375,0.052
8098.0,0.9301,-0.049,0.3277,1.761,1.291,0.617
8111.0,0.9318,-0.041,0.323,1.616,1.879,1.006
8124.0,0.9266,-0.042,0.3156,0.104,3.031,1.624
8137.0,0.9206,-0.0544,0.3181,-1.896,4.321,2.097
8150.0,0.9141,-0.0642,0.3232,-2.155,5.153,2.227
8163.0,0.9155,-0.0752,0.3341,-1.102,5.505,2.075
8176.0,0.9104,-0.0795,0.3418,0.913,5.528,1.647
8189.0,0.905,-0.0741,0.3471,2.112,5.459,1.197
8202.0,0.9049,-0.0682,0.3518,1.822,5.1,1.242
8215.0,0.9095,-0.0671,0.3456,1.394,4.863,1.09
8228.0,0.9118,-0.0659,0.3501,0.936,5.222,1.258
8241.0,0.9128,-0.0659,0.3438,1.005,5.604,1.372
8254.0,0.915,-0.0663,0.3443,0.066,5.871,1.212
8267.0,0.9156,-0.0717,0.3489,-0.468,6.062,1.075
8280.0,0.9128,-0.0758,0.3521,-0.491,5.909,0.731
8293.0,0.9143,-0.0772,0.3622,1.181,5.444,0.258
8306.0,0.9206,-0.0707,0.3577,2.471,5.352,-0.467
8319.0,0.9256,-0.0475,0.3543,2.761,5.848,-0.841
8332.0,0.9221,-0.0421,0.3534,0.074,6.459,-0.422
8345.0,0.9239,-0.0544,0.354,-2.11,6.795,-0.025
8358.0,0.9305,-0.0701,0.3528,-2.69,7.283,-0.551
8371.0,0.9261,-0.0775,0.36,-1.438,7.52,-1.567
8384.0,0.9183,-0.067,0.3698,0.745,7.161,-2.124
8397.0,0.9155,-0.054,0.3744,2.005,6.176,-2.422
8410.0,0.9238,-0.0448,0.3766,2.058,4.947,-2.3
8423.0,0.9289,-0.0422,0.3699,1.86,4.474,-1.948
8436.0,0.9328,-0.0403,0.3714,1.265,4.398,-1.742
8449.0,0.9349,-0.0404,0.3731,0.913,4.436,-1.406
8462.0,0.9299,-0.042,0.3745,-0.11,4.237,-0.964
8475.0,0.9263,-0.0502,0.3741,-0.331,3.474,-0.498
8488.0,0.9228,-0.0543,0.366,-0.171,3.146,-0.498
8501.0,0.9239,-0.0574,0.3691,-0.155,2.932,-0.78
8514.0,0.9205,-0.0536,0.3671,-0.132,3.016,-0.811
8527.0,0.9202,-0.0581,0.3693,-0.079,2.757,-0.643
8540.0,0.9162,-0.0612,0.3664,0.516,2.245,-0.467
8553.0,0.9165,-0.0602,0.3644,1.371,1.902,-0.33
8566.0,0.9159,-0.0541,0.3633,1.15,1.871,-0.49
8579.0,0.9161,-0.0547,0.3581,0.249,2.36,-0.452
8592.0,0.914,-0.0579,0.3595,-0.392,2.413,-0.2
8605.0,0.913,-0.062,0.3631,-0.148,2.405,-0.383
8618.0,0.9126,-0.062,0.3655,0.463,2.321,-0.735
8631.0,0.9122,-0.0635,0.3712,1.532,1.81,-0.964
8644.0,0.9107,-0.0493,0.3698,2.807,1.413,-0.834
8657.0,0.9108,-0.0375,0.3669,2.486,1.138,0.021
8670.0,0.9129,-0.0324,0.3581,0.921,1.054,0.815
8683.0,0.9156,-0.0409,0.3566,-0.59,1.589,1.388
8696.0,0.9204,-0.0514,0.3511,-0.781,2.459,1.502
8709.0,0.92,-0.0581,0.3526,-0.361,3.069,1.403
8722.0,0.9177,-0.0573,0.3615,0.158,3.291,1.273
8735.0,0.9076,-0.0605,0.3665,0.425,3.237,0.998
8748.0,0.9024,-0.0626,0.3694,0.364,2.734,0.769
8761.0,0.9054,-0.0587,0.3666,0.387,2.581,0.685
8774.0,0.9129,-0.063,0.3625,0.074,2.657,0.578
8787.0,0.9154,-0.0693,0.3714,0.181,3.199,0.456
8800.0,0.916,-0.066,0.3777,1.371,3.352,0.326
8813.0,0.9096,-0.0579,0.3761,1.707,3.169,-0.139
8826.0,0.9115,-0.0468,0.3868,1.784,2.337,-0.071
8839.0,0.9113,-0.049,0.3769,0.616,1.611,0.159
8852.0,0.9184,-0.0499,0.3704,0.577,1.169,0.479
8865.0,0.9221,-0.053,0.3648,0.669,0.932,0.777
8878.0,0.9251,-0.0544,0.3586,0.852,1.192,0.945
8891.0,0.9271,-0.0559,0.3578,0.608,1.986,0.968
8904.0,0.9233,-0.0587,0.3617,-0.209,2.879,0.853
8917.0,0.9161,-0.0613,0.3704,-0.255,3.36,0.838
8930.0,0.9069,-0.0603,0.3814,0.181,2.802,0.739
8943.0,0.9034,-0.0577,0.3852,0.868,1.726,0.792
8956.0,0.9077,-0.0599,0.3794,1.532,0.405,0.853
8969.0,0.916,-0.0573,0.3708,1.898,-0.228,0.708
8982.0,0.9194,-0.0558,0.3597,1.326,0.306,0.426
8995.0,0.9179,-0.0551,0.3581,0.28,1.069,0.258
9008.0,0.9162,-0.0665,0.3629,-0.079,1.764,0.181
9021.0,0.9151,-0.0636,0.3612,1.181,2.375,-0.055
9034.0,0.9111,-0.0601,0.3686,1.196,2.795,-0.414
9047.0,0.9093,-0.0551,0.3766,0.707,2.772,-0.559
9060.0,0.9047,-0.0525,0.3811,0.768,2.069,-0.361
9073.0,0.9038,-0.0518,0.3789,1.631,0.986,0.013
9086.0,0.9105,-0.0474,0.3733,2.104,-0.114,0.395
9099.0,0.9178,-0.0453,0.3642,2.364,-0.404,0.716
9112.0,0.9248,-0.0377,0.3623,1.814,-0.083,1.326
9125.0,0.9266,-0.0428,0.3581,0.173,0.734,1.975
9138.0,0.9233,-0.0532,0.3578,-0.888,1.611,2.159
9151.0,0.9139,-0.0626,0.3577,-0.98,2.428,1.983
9164.0,0.9069,-0.0667,0.3612,-0.476,2.596,1.662
9177.0,0.905,-0.0703,0.3611,0.112,2.367,1.296
9190.0,0.899,-0.0632,0.3654,0.623,1.894,0.83
9203.0,0.9028,-0.0648,0.3721,1.73,0.986,0.807
9216.0,0.9132,-0.0601,0.366,2.7,0.558,1.029
9229.0,0.9215,-0.0548,0.366,3.402,0.581,1.227
9242.0,0.9242,-0.0468,0.3648,2.707,1.062,1.693
9255.0,0.9249,-0.0464,0.3615,1.562,1.627,2.097
9268.0,0.9166,-0.0603,0.3686,0.135,2.115,2.41
9281.0,0.9101,-0.0688,0.3712,0.15,2.207,2.38
9294.0,0.9046,-0.0736,0.3712,1.287,1.993,2.151
9307.0,0.904,-0.0679,0.378,2.333,1.688,1.991
9320.0,0.9006,-0.0564,0.3753,1.677,1.108,2.059
9333.0,0.9045,-0.0441,0.365,1.646,1.459,3.097
9346.0,0.9093,-0.0494,0.3639,1.585,1.298,5.082
9359.0,0.9246,-0.0634,0.3435,-3.575,1.215,4.365
9372.0,0.9188,-0.1168,0.3488,-5.018,2.444,1.929
9385.0,0.9029,-0.1165,0.3506,0.196,3.26,-0.307
9398.0,0.8977,-0.0826,0.3511,4.952,3.123,-0.735
9411.0,0.9072,-0.0458,0.356,4.081,2.398,-0.071
9424.0,0.9202,-0.051,0.352,0.654,2.779,0.479
9437.0,0.9222,-0.0754,0.3634,-1.102,4.306,0.433
9450.0,0.9116,-0.0856,0.3727,0.249,4.703,0.181
9463.0,0.9104,-0.0826,0.3837,1.952,3.917,-0.147
9476.0,0.9096,-0.0697,0.3825,3.211,3.207,-0.193
9489.0,0.9041,-0.0568,0.3819,1.883,2.734,0.151
9502.0,0.9115,-0.0575,0.3691,0.142,2.108,0.586
9515.0,0.9133,-0.0686,0.3644,-2.003,2.451,0.464
9528.0,0.9162,-0.0803,0.3692,-0.331,2.886,0.105
9541.0,0.9144,-0.0701,0.3726,1.959,2.879,-0.2
9554.0,0.9076,-0.0521,0.383,4.058,2.321,-0.238
9567.0,0.9051,-0.031,0.3706,2.417,1.245,0.067
9580.0,0.9101,-0.0344,0.3554,-0.934,0.863,0.884
9593.0,0.9244,-0.0621,0.3478,-2.85,0.84,1.418
9606.0,0.9371,-0.0815,0.3399,-1.186,1.65,1.41
9619.0,0.9399,-0.0791,0.3494,1.616,2.818,1.059
9632.0,0.9328,-0.0624,0.3616,3.57,3.848,1.113
9645.0,0.9102,-0.0458,0.3722,2.471,4.36,1.548
9658.0,0.903,-0.0518,0.3833,-0.041,4.222,2.304
9671.0,0.8999,-0.073,0.3903,-2.125,3.237,2.792
9684.0,0.8997,-0.0951,0.3927,-1.949,2.298,2.784
9697.0,0.8988,-0.1071,0.3866,0.547,1.329,2.311
9710.0,0.8999,-0.1013,0.3803,2.562,0.734,1.25
9723.0,0.9034,-0.0866,0.3692,2.005,0.757,0.357
9736.0,0.9052,-0.084,0.3617,0.104,1.192,-0.193
9749.0,0.9043,-0.0949,0.3592,-0.499,1.68,-0.826
9762.0,0.9101,-0.0923,0.3601,1.249,2.131,-1.391
9775.0,0.9085,-0.0706,0.3604,2.631,2.367,-1.666
9788.0,0.9066,-0.0542,0.3632,2.196,2.528,-1.3
9801.0,0.9106,-0.0459,0.3625,0.242,2.573,-0.322
9814.0,0.9165,-0.0559,0.3607,-2.629,2.84,0.326
9827.0,0.919,-0.0774,0.3564,-3.392,3.352,0.449
9840.0,0.9119,-0.0923,0.3654,-2.468,3.924,0.12
9853.0,0.906,-0.0942,0.3667,-0.064,4.008,-0.689
9866.0,0.9034,-0.0845,0.368,1.005,3.863,-1.46
9879.0,0.9055,-0.0773,0.3728,0.501,3.734,-1.765
9892.0,0.9083,-0.0784,0.3739,0.196,3.367,-1.689
9905.0,0.9118,-0.0839,0.3771,0.7,3.146,-1.49
9918.0,0.9104,-0.0826,0.3717,1.89,2.917,-1.338
9931.0,0.9094,-0.0714,0.3683,1.868,2.894,-1.3
9944.0,0.9145,-0.071,0.3677,0.203,3.291,-1.49
9957.0,0.9146,-0.0764,0.3644,-1.216,3.84,-1.559
9970.0,0.9185,-0.088,0.3726,-0.445,4.176,-1.551
9983.0,0.914,-0.0797,0.3804,1.295,4.108,-1.704
9996.0,0.9115,-0.0707,0.388,2.44,3.757,-1.62
10009.0,0.9099,-0.064,0.3913,1.99,3.398,-1.559
10022.0,0.9065,-0.0543,0.3946,0.982,2.955,-0.956
10035.0,0.9028,-0.059,0.3833,-0.552,2.001,0.013
10048.0,0.908,-0.0725,0.3855,-1.514,1.497,0.746
10061.0,0.9185,-0.0872,0.376,-1.094,1.352,0.464
10074.0,0.9209,-0.09,0.3723,0.303,2.138,-0.651
10087.0,0.9166,-0.0757,0.3763,1.684,2.428,-1.536
10100.0,0.9132,-0.057,0.3814,2.364,2.367,-1.59
10113.0,0.9113,-0.0483,0.3786,1.791,2.047,-1.139
10126.0,0.9074,-0.0488,0.3816,0.486,2.161,-0.177
10139.0,0.9035,-0.0554,0.3741,-1.11,2.253,0.265
10152.0,0.904,-0.0782,0.3744,-2.339,2.665,0.281
10165.0,0.9021,-0.0911,0.3771,-1.193,3.039,-0.674
10178.0,0.8988,-0.0901,0.3819,0.57,3.482,-2.002
10191.0,0.8945,-0.0739,0.3858,2.181,3.192,-2.796
10204.0,0.8923,-0.0559,0.3794,2.646,2.466,-3.093
10217.0,0.8946,-0.0503,0.3769,1.875,1.871,-2.605
10230.0,0.9112,-0.053,0.3642,1.211,2.077,-1.735
10243.0,0.9249,-0.0477,0.3482,1.104,3.123,-1.246
10256.0,0.9204,-0.0608,0.3581,-1.171,4.535,-0.819
10269.0,0.9204,-0.0702,0.3667,1.371,5.726,-0.841
10282.0,0.9067,-0.0656,0.382,1.7,6.97,-0.979
10295.0,0.894,-0.0538,0.4026,2.326,6.482,-1.292
10308.0,0.895,-0.0471,0.4031,0.753,5.199,-1.33
10321.0,0.896,-0.0634,0.4053,-0.881,3.757,-1.277
10334.0,0.9067,-0.0728,0.4003,0.791,2.589,-1.628
10347.0,0.9179,-0.0664,0.3965,3.173,1.917,-2.124
10360.0,0.9174,-0.0513,0.3929,4.303,1.68,-2.162
10373.0,0.9144,-0.0374,0.3931,3.898,1.237,-1.819
10386.0,0.9218,-0.0295,0.3877,1.829,1.024,-0.872
10399.0,0.9183,-0.0414,0.3863,-0.499,1.008,0.128
10412.0,0.9177,-0.0585,0.3878,-1.804,0.909,0.662
10425.0,0.9095,-0.0673,0.3811,-1.201,0.558,0.846
10438.0,0.9017,-0.0693,0.3826,-0.003,-0.045,0.792
10451.0,0.9016,-0.0612,0.3732,1.287,-0.526,0.678
10464.0,0.9072,-0.056,0.3662,0.99,-0.35,0.884
10477.0,0.9122,-0.0565,0.3505,-0.774,0.131,1.273
10490.0,0.9111,-0.0715,0.3553,-2.293,1.23,1.739
10503.0,0.9112,-0.0855,0.3603,-1.995,2.535,1.693
10516.0,0.9016,-0.0887,0.3706,-0.934,3.436,0.991
10529.0,0.8866,-0.0864,0.3817,0.089,3.573,0.296
10542.0,0.8828,-0.0776,0.3896,0.623,3.115,-0.353
10555.0,0.8872,-0.0762,0.3893,0.463,2.451,-0.605
10568.0,0.8972,-0.0763,0.385,0.883,2.398,-0.582
10581.0,0.9022,-0.0725,0.3874,0.837,2.65,-0.78
10594.0,0.9071,-0.0663,0.3859,0.562,3.161,-0.826
10607.0,0.9051,-0.0671,0.3868,-0.056,3.352,-1.086
10620.0,0.8983,-0.0648,0.39,-0.308,3.375,-1.467
10633.0,0.8982,-0.0635,0.3877,-0.018,2.779,-1.788
10646.0,0.9022,-0.0541,0.385,0.738,2.466,-1.918
10659.0,0.9082,-0.0394,0.382,1.165,2.291,-1.513
10672.0,0.9149,-0.0383,0.3744,0.99,3.024,-0.666
10685.0,0.9161,-0.0422,0.3817,0.196,3.642,0.082
10698.0,0.9162,-0.0532,0.385,-0.942,4.382,0.403
10711.0,0.9124,-0.0631,0.3871,-2.171,5.092,0.105
10724.0,0.896,-0.0754,0.3999,-2.613,4.886,-0.292
10737.0,0.8983,-0.0787,0.4009,-0.69,4.123,-1.032
10750.0,0.9024,-0.0754,0.3982,1.173,3.245,-1.719
10763.0,0.9034,-0.0652,0.3959,2.898,2.634,-1.887
10776.0,0.9097,-0.0527,0.3992,3.845,1.993,-2.032
10789.0,0.9135,-0.0461,0.3886,2.99,2.047,-2.048
10802.0,0.9178,-0.0433,0.3883,1.906,2.26,-1.887
10815.0,0.9199,-0.0424,0.3865,0.936,2.245,-1.445
10828.0,0.9182,-0.0497,0.3918,0.829,1.993,-0.918
10841.0,0.9211,-0.0519,0.3871,0.791,1.871,-0.742
10854.0,0.9176,-0.0603,0.3932,1.058,1.718,-0.605
10867.0,0.9154,-0.0527,0.3949,1.654,1.52,-0.506
10880.0,0.9045,-0.0499,0.3971,0.768,1.146,-0.055
10893.0,0.9003,-0.0603,0.3932,-0.255,0.619,0.349
10906.0,0.9062,-0.075,0.3878,-0.72,0.352,0.159
10919.0,0.9072,-0.0836,0.3861,-0.354,0.489,-0.399
10932.0,0.9021,-0.0853,0.383,0.417,0.734,-1.269
10945.0,0.8945,-0.0769,0.3767,0.814,1.398,-2.216
10958.0,0.8906,-0.0708,0.3864,0.303,1.688,-2.59
10971.0,0.8833,-0.0739,0.3825,-0.193,1.482,-2.979
10984.0,0.8846,-0.0737,0.3782,-0.957,1.398,-3.414
10997.0,0.8906,-0.0801,0.3798,0.081,1.291,-3.811
11010.0,0.8999,-0.0665,0.3742,2.127,1.405,-4.368
11023.0,0.9003,-0.0501,0.3767,3.226,1.764,-4.162
11036.0,0.9001,-0.0282,0.3731,2.058,2.421,-3.49
11049.0,0.9021,-0.0308,0.3669,-1.522,3.268,-2.651
11062.0,0.9044,-0.0501,0.3606,-3.59,4.268,-2.132
11075.0,0.9057,-0.0652,0.3699,-3.11,4.978,-2.093
11088.0,0.9043,-0.071,0.3789,-0.636,5.306,-2.506
11101.0,0.8985,-0.0554,0.3943,2.799,4.978,-2.964
11114.0,0.8901,-0.0283,0.4053,4.203,4.016,-2.445
11127.0,0.9003,-0.0137,0.4035,1.913,2.886,-1.414
11140.0,0.9176,-0.0253,0.3952,-1.247,2.558,-0.216
11153.0,0.9228,-0.0488,0.3865,-3.445,3.436,0.456
11166.0,0.9188,-0.0724,0.3835,-3.308,4.329,0.22
11179.0,0.9024,-0.0807,0.3919,-1.606,4.444,-0.46
11192.0,0.8993,-0.0795,0.3983,0.7,3.84,-1.559
11205.0,0.8979,-0.0568,0.3993,1.944,3.352,-2.49
11218.0,0.8944,-0.0425,0.4027,1.341,2.718,-2.315
11231.0,0.8972,-0.0411,0.4026,0.57,1.924,-1.75
11244.0,0.9078,-0.0463,0.3919,-0.247,1.55,-1.185
11257.0,0.919,-0.0581,0.3868,-0.232,2.054,-1.406
11270.0,0.9162,-0.0546,0.3852,0.219,2.978,-1.994
11283.0,0.905,-0.0509,0.3914,-0.858,3.673,-2.086
11296.0,0.8997,-0.0521,0.3944,-1.285,3.695,-2.193
11309.0,0.8961,-0.0533,0.3982,-1.216,3.451,-2.643
11322.0,0.8978,-0.0513,0.3997,0.15,2.68,-3.216
11335.0,0.901,-0.0425,0.3933,1.173,1.978,-3.322
11348.0,0.909,-0.0364,0.391,1.203,1.619,-3.025
11361.0,0.9118,-0.0282,0.3811,1.242,1.795,-2.658
11374.0,0.9144,-0.0282,0.3852,0.41,2.375,-2.078
11387.0,0.9137,-0.0333,0.3875,0.356,2.688,-1.582
11400.0,0.9116,-0.0345,0.383,0.089,3.192,-1.452
11413.0,0.9057,-0.0407,0.392,-0.445,3.573,-1.46
11426.0,0.9013,-0.0436,0.3951,-0.071,3.734,-1.483
11439.0,0.8968,-0.0481,0.4021,-0.155,3.894,-1.582
11452.0,0.8957,-0.0472,0.3974,0.257,3.421,-1.674
11465.0,0.8963,-0.0488,0.4005,0.348,2.94,-1.788
11478.0,0.8946,-0.0452,0.3997,0.341,2.535,-1.994
11491.0,0.899,-0.0441,0.3933,0.89,2.337,-2.055
11504.0,0.9006,-0.0397,0.3975,2.005,2.176,-1.819
11517.0,0.9099,-0.0295,0.3918,2.211,2.077,-1.735
11530.0,0.9097,-0.026,0.3883,1.158,2.596,-1.536
11543.0,0.905,-0.0341,0.3893,-0.079,3.008,-1.246
11556.0,0.898,-0.0438,0.3853,-0.919,3.596,-1.078
11569.0,0.8996,-0.0524,0.3921,-0.728,4.016,-1.139
11582.0,0.8975,-0.0513,0.3927,-0.11,4.039,-1.544
11595.0,0.8941,-0.0496,0.3985,0.7,3.787,-1.903
11608.0,0.901,-0.0441,0.404,1.807,3.291,-2.009
11621.0,0.9055,-0.0332,0.402,1.745,3.153,-1.979
11634.0,0.9014,-0.0378,0.404,0.639,2.917,-1.483
11647.0,0.901,-0.047,0.4031,-0.056,2.558,-1.216
11660.0,0.905,-0.0536,0.3991,0.119,2.787,-1.658
11673.0,0.9078,-0.0499,0.4079,1.02,3.413,-2.406
11686.0,0.9022,-0.0398,0.4153,0.684,3.581,-2.658
11699.0,0.896,-0.0393,0.416,0.097,2.764,-2.376
11712.0,0.8947,-0.0349,0.4092,0.234,1.848,-2.338
11725.0,0.8969,-0.0378,0.4012,0.097,1.222,-2.49
11738.0,0.9062,-0.0364,0.3974,0.868,0.818,-2.483
11751.0,0.9121,-0.0284,0.3924,1.875,1.199,-2.406
11764.0,0.909,-0.0176,0.3925,1.501,1.703,-2.2
11777.0,0.906,-0.0143,0.3916,0.058,2.276,-1.628
11790.0,0.9077,-0.0261,0.391,-1.613,2.688,-1.116
11803.0,0.9067,-0.0432,0.3974,-2.461,3.291,-1.147
11816.0,0.9043,-0.0519,0.4032,-0.506,3.52,-1.689
11829.0,0.893,-0.0425,0.4115,1.348,3.176,-2.529
11842.0,0.8888,-0.0227,0.4171,3.265,2.398,-2.643
11855.0,0.893,-0.0077,0.4125,2.379,1.131,-1.979
11868.0,0.9023,-0.0153,0.4007,0.753,0.726,-1.017
11881.0,0.9101,-0.0261,0.3949,-0.545,1.008,-0.445
11894.0,0.9116,-0.0376,0.3924,-0.041,1.68,-0.559
11907.0,0.9082,-0.0342,0.3996,1.341,2.115,-0.864
11920.0,0.9061,-0.0219,0.4045,2.127,2.146,-0.964
11933.0,0.8994,-0.0115,0.408,2.036,2.115,-0.559
11946.0,0.8974,-0.0133,0.4018,0.997,1.779,0.159
11959.0,0.9016,-0.0225,0.3963,-0.193,1.902,0.838
11972.0,0.904,-0.0344,0.399,-0.346,2.146,1.036
11985.0,0.8982,-0.0441,0.4088,0.341,2.153,1.013
11998.0,0.8988,-0.0374,0.411,1.394,1.802,0.891
12011.0,0.9029,-0.03,0.4081,1.303,1.634,0.555
12024.0,0.9003,-0.0305,0.4119,-0.018,1.512,0.395
12037.0,0.8978,-0.033,0.4084,-0.598,1.153,0.601
12050.0,0.9002,-0.0376,0.4095,-0.079,0.856,0.7
12063.0,0.9012,-0.0397,0.406,0.868,0.589,0.357
12076.0,0.8974,-0.0363,0.4057,1.158,0.566,-0.33
12089.0,0.8968,-0.0278,0.4052,1.661,0.36,-0.62
12102.0,0.8969,-0.0195,0.4012,1.532,0.291,-0.513
12115.0,0.9014,-0.0118,0.3994,1.501,0.253,0.044
12128.0,0.9058,-0.0099,0.3975,1.036,0.566,0.815
12141.0,0.9062,-0.0092,0.3883,0.074,0.993,1.38
12154.0,0.9036,-0.0221,0.3881,-1.079,1.55,1.655
12167.0,0.8956,-0.0353,0.3908,-1.277,1.52,1.731
12180.0,0.8951,-0.0446,0.3918,-0.01,1.474,1.189
12193.0,0.9039,-0.0369,0.3889,1.99,1.489,0.578
12206.0,0.9074,-0.0254,0.3972,2.562,1.848,0.571
12219.0,0.9036,-0.0168,0.3954,1.875,2.215,0.975
12232.0,0.9018,-0.0255,0.3926,0.379,2.444,1.388
12245.0,0.8988,-0.0359,0.4008,-0.659,2.367,1.296
12258.0,0.9007,-0.045,0.3982,-0.308,1.993,0.907
12271.0,0.9024,-0.0446,0.3987,1.188,1.573,0.594
12284.0,0.9029,-0.0369,0.3981,2.524,1.215,0.433
12297.0,0.9076,-0.0249,0.3976,2.562,1.283,0.7
12310.0,0.908,-0.0269,0.3911,1.463,1.81,1.067
12323.0,0.9033,-0.0326,0.3943,0.158,2.604,1.281
12336.0,0.8977,-0.0375,0.3954,-0.14,2.695,1.426
12349.0,0.8924,-0.0458,0.3985,0.089,2.123,1.502
12362.0,0.8938,-0.0497,0.3954,0.616,1.619,1.403
12375.0,0.8956,-0.0593,0.3953,0.509,1.566,1.227
12388.0,0.8999,-0.0632,0.3908,0.7,2.298,0.8
12401.0,0.8966,-0.0599,0.4012,0.997,2.749,-0.162
12414.0,0.8971,-0.0498,0.4004,0.768,3.131,-1.032
12427.0,0.8917,-0.0416,0.4053,0.707,2.848,-1.345
12440.0,0.887,-0.0349,0.4087,1.356,1.68,-1.002
12453.0,0.8912,-0.0277,0.3952,1.341,0.734,-0.422
12466.0,0.9065,-0.0293,0.3876,0.906,0.909,0.326
12479.0,0.9154,-0.0272,0.3903,0.333,1.566,0.7
12492.0,0.9127,-0.0322,0.398,-0.11,2.604,0.594
12505.0,0.905,-0.0341,0.4053,-0.323,3.36,0.357
12518.0,0.8924,-0.0313,0.4149,0.013,2.97,0.212
12531.0,0.8918,-0.0261,0.4099,0.219,1.833,0.395
12544.0,0.9023,-0.0293,0.4106,1.074,1.062,0.723
12557.0,0.909,-0.0248,0.3988,1.463,0.352,1.204
12570.0,0.9161,-0.026,0.3927,1.654,0.65,1.632
12583.0,0.9194,-0.0275,0.3948,1.715,1.253,1.853
12596.0,0.9095,-0.0306,0.391,0.784,2.192,1.716
12609.0,0.9024,-0.0353,0.3963,0.066,2.924,1.548
12622.0,0.9005,-0.0442,0.3979,-0.453,2.963,1.22
12635.0,0.9025,-0.0593,0.397,-0.308,3.039,0.884
12648.0,0.9066,-0.0671,0.4074,1.257,3.077,0.288
12661.0,0.9063,-0.0618,0.4187,3.684,3.138,-0.948
12674.0,0.8988,-0.0397,0.4224,4.432,2.879,-1.674
12687.0,0.8894,-0.0214,0.4267,3.776,2.276,-1.62
12700.0,0.889,-0.0198,0.4275,1.196,1.253,-1.483
12713.0,0.8975,-0.0233,0.4077,0.112,-0.045,-1.567
12726.0,0.9036,-0.0325,0.4051,0.448,-0.228,-1.765
12739.0,0.9231,-0.0266,0.3902,3.173,0.39,-2.307
12752.0,0.911,-0.0166,0.3962,3.402,1.894,-2.345
12765.0,0.8949,-0.0039,0.4063,3.936,1.894,-1.964
12778.0,0.8847,-0.006,0.4009,1.364,1.497,-1.49
12791.0,0.8961,-0.0182,0.3997,0.791,1.207,-0.819
12804.0,0.9071,-0.0326,0.3937,0.31,0.932,-0.3
12817.0,0.9049,-0.043,0.3931,1.112,1.108,-0.2
12830.0,0.9029,-0.038,0.3935,2.799,1.314,-0.574
12843.0,0.8997,-0.0243,0.4008,3.348,1.528,-0.475
12856.0,0.8956,-0.0143,0.3964,2.364,1.451,0.242
12869.0,0.893,-0.0251,0.3979,0.066,1.008,1.159
12882.0,0.9001,-0.0488,0.3997,-0.423,0.84,1.449
12895.0,0.8974,-0.0562,0.3887,0.852,0.665,1.38
12908.0,0.8963,-0.0544,0.3891,2.463,0.39,1.319
12921.0,0.895,-0.0437,0.3825,3.058,0.421,1.166
12934.0,0.8964,-0.0391,0.3774,1.532,0.932,1.265
12947.0,0.9017,-0.0515,0.3721,-0.484,1.757,1.502
12960.0,0.9019,-0.0668,0.3816,-0.743,2.802,1.372
12973.0,0.9008,-0.0704,0.3861,0.043,3.428,0.784
12986.0,0.8979,-0.0696,0.3883,0.516,3.871,0.181
12999.0,0.8956,-0.0659,0.3952,-0.384,3.917,-0.399
13012.0,0.8957,-0.0767,0.398,-1.003,4.207,-0.88
13025.0,0.8908,-0.0867,0.4088,-0.758,4.215,-2.116
13038.0,0.889,-0.0896,0.4228,0.219,3.375,-3.826
13051.0,0.8902,-0.0753,0.4247,2.181,2.215,-5.277
13064.0,0.8973,-0.0576,0.4222,3.036,1.329,-5.987
13077.0,0.9117,-0.0391,0.4176,3.196,1.123,-6.078
13090.0,0.9118,-0.0256,0.4088,1.768,1.291,-5.712
13103.0,0.9069,-0.0258,0.4082,-0.3,1.757,-5.284
13116.0,0.9043,-0.0291,0.4037,-0.659,1.902,-5.399
13129.0,0.9058,-0.0154,0.4086,-0.392,2.001,-5.406
13142.0,0.9069,-0.0034,0.4093,-0.232,1.489,-4.513
13155.0,0.9097,0.0027,0.412,-0.056,0.68,-3.551
13168.0,0.916,0.0107,0.4012,-0.018,0.566,-2.635
13181.0,0.9143,0.009,0.4029,-0.102,0.726,-2.101
13194.0,0.9122,0.0044,0.3996,-0.842,0.863,-1.46
13207.0,0.9073,0.006,0.3958,-1.346,1.001,-0.498
13220.0,0.9036,0.0005,0.3997,-1.964,1.329,0.235
13233.0,0.8969,-0.0114,0.4027,-2.026,1.283,0.639
13246.0,0.8985,-0.0199,0.408,-0.331,1.482,0.403
13259.0,0.8985,-0.0176,0.4073,1.181,1.283,-0.078
13272.0,0.8991,-0.007,0.4004,2.036,1.146,-0.055
13285.0,0.9023,0.0005,0.3979,1.333,1.215,0.174
13298.0,0.9018,-0.0088,0.4016,0.119,1.52,0.662
13311.0,0.9078,-0.0171,0.3982,0.486,1.512,0.685
13324.0,0.9029,-0.0201,0.3994,0.89,1.589,0.471
13337.0,0.9002,-0.0231,0.3966,1.471,1.207,0.258
13350.0,0.9012,-0.0154,0.3992,1.547,0.757,0.265
13363.0,0.9006,-0.0231,0.3938,1.028,0.802,0.456
13376.0,0.906,-0.0281,0.3913,1.822,0.84,0.762
13389.0,0.9095,-0.0253,0.4015,2.478,1.115,0.693
13402.0,0.9047,-0.0214,0.3988,2.471,1.673,0.899
13415.0,0.8925,-0.0188,0.4035,1.211,1.863,1.128
13428.0,0.887,-0.023,0.4052,-0.537,1.337,1.227
13441.0,0.8877,-0.0365,0.4076,-1.377,0.505,1.204
13454.0,0.8928,-0.0471,0.3946,0.066,0.024,0.899
13467.0,0.894,-0.0388,0.3865,1.471,-0.32,0.777
13480.0,0.8997,-0.0243,0.375,1.852,0.1,0.784
13493.0,0.9046,-0.019,0.3715,0.219,1.237,1.159
13506.0,0.9003,-0.0277,0.3747,-1.674,2.566,1.388
13519.0,0.8935,-0.0426,0.3759,-1.903,3.367,1.22
13532.0,0.8875,-0.0446,0.38,-1.01,3.489,0.7
13545.0,0.8929,-0.037,0.3853,0.524,3.528,0.197
13558.0,0.9019,-0.0249,0.3859,0.532,3.505,0.021
13571.0,0.9073,-0.0245,0.3916,1.013,3.528,0.212
13584.0,0.9062,-0.028,0.3944,0.6,3.665,0.571
13597.0,0.9072,-0.0317,0.3987,0.89,4.146,0.746
13610.0,0.9104,-0.0275,0.4059,0.616,4.573,0.494
13623.0,0.9074,-0.0242,0.4153,0.135,4.741,0.326
13636.0,0.8996,-0.0282,0.4237,0.028,4.192,0.288
13649.0,0.8942,-0.0264,0.4279,0.555,3.169,0.311
13662.0,0.8973,-0.025,0.4241,1.127,1.886,0.456
13675.0,0.903,-0.0216,0.4129,0.852,1.23,0.487
13688.0,0.9089,-0.0283,0.4068,0.165,0.963,0.441
13701.0,0.9097,-0.026,0.4031,0.7,1.352,0.533
13714.0,0.905,-0.0243,0.4027,0.814,1.711,0.548
13727.0,0.9043,-0.0198,0.4016,0.142,2.207,0.609
13740.0,0.9013,-0.0223,0.4007,-1.247,2.382,0.563
13753.0,0.8972,-0.0333,0.4034,-2.071,2.36,0.502
13766.0,0.8971,-0.0407,0.404,-1.4,2.031,0.166
13779.0,0.8963,-0.0416,0.4069,0.112,1.68,-0.49
13792.0,0.8964,-0.0342,0.4049,1.509,1.016,-1.101
13805.0,0.9005,-0.0211,0.4009,1.73,0.558,-1.284
13818.0,0.9063,-0.0129,0.3933,1.028,0.466,-0.925
13831.0,0.9141,-0.0186,0.3847,0.402,0.932,-0.376
13844.0,0.9115,-0.031,0.3785,-0.4,1.818,-0.109
13857.0,0.9105,-0.037,0.3787,0.066,2.528,-0.139
13870.0,0.9084,-0.0343,0.3826,0.555,3.558,-0.246
13883.0,0.9,-0.0359,0.3908,0.509,4.52,0.059
13896.0,0.8953,-0.0422,0.4038,-0.102,4.573,0.25
13909.0,0.8974,-0.0483,0.4139,0.684,4.26,0.159
13922.0,0.8919,-0.0442,0.4198,1.516,3.566,-0.101
13935.0,0.8861,-0.0408,0.4286,1.936,2.276,0.082
13948.0,0.8867,-0.038,0.4279,1.99,0.573,0.388
13961.0,0.8993,-0.0294,0.411,1.463,-0.266,0.563
13974.0,0.9032,-0.0281,0.4003,0.723,0.008,0.861
13987.0,0.9016,-0.032,0.3865,-0.125,0.879,1.166
14000.0,0.9045,-0.0331,0.3872,-0.407,1.741,1.189
14013.0,0.899,-0.0356,0.3842,-0.644,2.879,1.021
14026.0,0.8894,-0.042,0.3886,-1.033,3.573,0.7
14039.0,0.8839,-0.0455,0.3891,-1.132,3.703,0.449
14052.0,0.8885,-0.0511,0.3865,-1.132,3.749,0.189
14065.0,0.8952,-0.052,0.3915,-0.476,4.26,-0.353
14078.0,0.8983,-0.0538,0.3927,0.425,4.604,-1.231
14091.0,0.8966,-0.0507,0.3999,1.829,5.405,-2.109
14104.0,0.8966,-0.0376,0.4057,1.074,5.802,-2.658
14117.0,0.8957,-0.0416,0.4212,0.005,5.787,-2.864
14130.0,0.8978,-0.0442,0.4187,-0.277,5.253,-3.154
14143.0,0.8996,-0.0439,0.4225,1.272,4.283,-3.59
14156.0,0.8986,-0.0297,0.4236,3.669,3.1,-3.864
14169.0,0.9124,-0.0101,0.4196,4.577,2.52,-3.574
14182.0,0.9155,0.0061,0.4154,3.318,2.566,-2.925
14195.0,0.915,0.0087,0.4139,0.616,2.84,-1.666
14208.0,0.9118,-0.0,0.4171,-1.316,2.94,-0.925
14221.0,0.9084,-0.0251,0.4198,-1.69,3.314,-0.651
14234.0,0.8972,-0.0209,0.4258,1.768,2.81,-0.666
14247.0,0.8892,-0.0103,0.4239,2.829,1.924,-0.75
14260.0,0.889,0.0039,0.4176,2.097,0.917,-0.322
14273.0,0.8961,-0.0106,0.4129,0.104,0.237,0.304
14286.0,0.9071,-0.0266,0.4032,0.997,0.421,0.296
14299.0,0.9085,-0.0212,0.404,2.463,1.352,-0.055
14312.0,0.9025,-0.0095,0.4167,3.41,1.81,-0.338
14325.0,0.8908,0.0007,0.4134,1.814,1.993,-0.3
14338.0,0.8901,-0.0051,0.4176,-0.232,1.757,-0.193
14351.0,0.894,-0.0173,0.4139,-0.819,1.237,-0.177
14364.0,0.896,-0.028,0.4082,0.944,0.963,-0.536
14377.0,0.898,-0.0199,0.4108,3.707,0.528,-0.925
14390.0,0.9003,0.0063,0.4071,5.608,0.367,-0.758
14403.0,0.8988,0.0186,0.4058,4.219,0.528,0.113
14416.0,0.905,0.0199,0.3971,1.226,0.924,1.319
14429.0,0.9049,-0.0046,0.4008,-1.43,1.558,2.334
